#
# Telescope:          Arecibo Radio Telescope
# Receiver:           L-band Wide (LBW)
# Source Name:        A161941.4+131458
# AGC Number:         0
# RA:                 244.92250 (J2000) decimal degrees
# DEC:                 13.24944 (J2000) decimal degrees
# Rest Frequency:     1420.4058 [MHz]
# Channels:           2048
# Bandwidth:          24 MHz
#
# Mean value of continuum emission:-30.4040
# Baseline fit order: 2
# Parameters for baseline polynomial fit (A+Bx+Cx^2+...):
#   Order   Value [mJy / (km/s)^n]:
#     0          -31.9131
#     1       0.000989701
#     2      -6.82861E-08
#
# Smoothing method:          3-channel Hanning
# RMS for smoothed baseline: 1.17492 mJy
#
# ************** FIT PARAMETERS **************
# Fit Type:                Two-Horned (P)
# User Fit Boundaries:     
#      Lower Left Channel:           902
#      Upper Left Channel:           959
#      Lower Right Channel:          795
#      Upper Right Channel:          877
# Integrated Flux Density:     0.949 +/-  0.072 Jy km/s
# Systemic Velocity:        9388.38  +/- 15.79     km/s
# Velocity Width (W50):      244.64  +/- 22.33     km/s
# Velocity Width (W20):      319.12  +/- 22.33     km/s
#
# Comments:
# Right side of fit very sensitive to boundaries selected.
#
# Table FORMAT:   (I4,1x,F8.1,1x,F12.6,1x,F10.4,1x,F10.4,1x,F10.4,1x,F10.4)
#
# Column descriptions:
# 1. Channel number
# 2. Heliocentric Velocity (Optical Convention) [km/s]
# 3. Radio frequency [MHz]
# 4. Flux density of raw spectrum [mJy]
# 5. Fitted baseline [mJy]
# 6. Baseline-subtracted smoothed spectrum [mJy]
#
#######################################################

   0  11822.2  1366.586640   -28.4975   -29.7567     0.7231
   1  11819.4  1366.598847   -30.6401   -29.7549    -1.1805
   2  11816.6  1366.611054   -33.9639   -29.7532    -2.0895
   3  11813.8  1366.623261   -28.8028   -29.7514     0.3116
   4  11811.1  1366.635469   -26.1901   -29.7497     1.5339
   5  11808.3  1366.647676   -31.6805   -29.7480     0.8774
   6  11805.5  1366.659883   -25.9312   -29.7462     0.5793
   7  11802.7  1366.672090   -33.1247   -29.7445    -0.7640
   8  11799.9  1366.684297   -29.8533   -29.7428    -0.4819
   9  11797.1  1366.696504   -28.0674   -29.7410     1.4557
  10  11794.4  1366.708711   -27.1533   -29.7393     1.7248
  11  11791.6  1366.720918   -29.6844   -29.7376     0.5380
  12  11788.8  1366.733125   -30.2763   -29.7359    -0.3016
  13  11786.0  1366.745332   -29.9129   -29.7341    -0.8270
  14  11783.2  1366.757539   -32.1424   -29.7324    -1.8401
  15  11780.4  1366.769746   -32.0926   -29.7307    -1.8560
  16  11777.7  1366.781953   -30.0193   -29.7290    -1.4805
  17  11774.9  1366.794160   -32.7069   -29.7272    -1.4553
  18  11772.1  1366.806367   -29.2969   -29.7255    -0.4594
  19  11769.3  1366.818574   -29.4388   -29.7238     0.4688
  20  11766.5  1366.830781   -28.8454   -29.7221     0.6133
  21  11763.7  1366.842988   -29.3055   -29.7204     0.3772
  22  11761.0  1366.855195   -29.9164   -29.7187    -0.7693
  23  11758.2  1366.867402   -32.8137   -29.7169    -1.0984
  24  11755.4  1366.879609   -27.7174   -29.7152     0.2984
  25  11752.6  1366.891816   -29.4189   -29.7135     1.2266
  26  11749.8  1366.904023   -27.3923   -29.7118     1.2634
  27  11747.1  1366.916230   -29.5902   -29.7101     0.0645
  28  11744.3  1366.928437   -32.0096   -29.7084    -1.2037
  29  11741.5  1366.940644   -30.0388   -29.7067    -0.5056
  30  11738.7  1366.952851   -28.7616   -29.7050     1.3838
  31  11735.9  1366.965058   -25.7227   -29.7033     2.2585
  32  11733.1  1366.977265   -29.5722   -29.7016     0.3994
  33  11730.4  1366.989472   -32.3416   -29.6998    -1.5128
  34  11727.6  1367.001679   -30.5953   -29.6981    -1.1522
  35  11724.8  1367.013886   -29.8694   -29.6964    -0.7506
  36  11722.0  1367.026094   -31.4541   -29.6947    -1.4974
  37  11719.2  1367.038301   -31.9910   -29.6930    -2.1694
  38  11716.4  1367.050508   -32.0140   -29.6913    -2.4024
  39  11713.7  1367.062715   -32.3562   -29.6896    -1.3414
  40  11710.9  1367.074922   -27.3980   -29.6879     0.3649
  41  11708.1  1367.087129   -30.1397   -29.6863     0.2746
  42  11705.3  1367.099336   -29.9692   -29.6846    -0.6845
  43  11702.5  1367.111543   -31.3979   -29.6829    -1.6450
  44  11699.8  1367.123750   -32.5465   -29.6812    -1.4920
  45  11697.0  1367.135957   -28.2018   -29.6795     0.8409
  46  11694.2  1367.148164   -26.4040   -29.6778     1.7637
  47  11691.4  1367.160371   -30.6465   -29.6761     0.6153
  48  11688.6  1367.172578   -28.5463   -29.6744     0.5841
  49  11685.9  1367.184785   -28.6223   -29.6727     0.9724
  50  11683.1  1367.196992   -29.0103   -29.6710     0.9271
  51  11680.3  1367.209199   -28.3327   -29.6694     0.6301
  52  11677.5  1367.221406   -30.4812   -29.6677    -0.2271
  53  11674.7  1367.233613   -30.2839   -29.6660    -0.5139
  54  11672.0  1367.245820   -29.6705   -29.6643     0.0309
  55  11669.2  1367.258027   -28.9087   -29.6626     0.9472
  56  11666.4  1367.270234   -27.3738   -29.6610     1.1066
  57  11663.6  1367.282441   -30.5612   -29.6593    -0.0134
  58  11660.8  1367.294648   -30.1945   -29.6576    -0.8079
  59  11658.0  1367.306855   -30.9120   -29.6559    -0.4103
  60  11655.3  1367.319062   -28.2465   -29.6543     0.1236
  61  11652.5  1367.331269   -30.7175   -29.6526     0.4120
  62  11649.7  1367.343476   -27.2810   -29.6509     1.0907
  63  11646.9  1367.355683   -28.9612   -29.6492     0.6613
  64  11644.1  1367.367890   -30.7484   -29.6476    -1.0537
  65  11641.4  1367.380097   -32.3470   -29.6459    -1.0323
  66  11638.6  1367.392304   -27.2705   -29.6442     0.7213
  67  11635.8  1367.404511   -28.8039   -29.6426     1.1326
  68  11633.0  1367.416719   -29.1616   -29.6409     0.4222
  69  11630.2  1367.428926   -29.7478   -29.6392     0.5422
  70  11627.5  1367.441133   -27.7308   -29.6376     1.9773
  71  11624.7  1367.453340   -25.4317   -29.6359     2.3410
  72  11621.9  1367.465547   -30.5853   -29.6342     0.0939
  73  11619.1  1367.477754   -31.5591   -29.6326    -1.5832
  74  11616.3  1367.489961   -31.1595   -29.6309    -0.7649
  75  11613.6  1367.502168   -27.7050   -29.6293     0.1580
  76  11610.8  1367.514375   -31.3153   -29.6276    -0.0506
  77  11608.0  1367.526582   -28.3771   -29.6259     0.6512
  78  11605.2  1367.538789   -27.8293   -29.6243     1.9950
  79  11602.4  1367.550996   -26.4814   -29.6226     1.4858
  80  11599.7  1367.563203   -31.7552   -29.6210     0.2371
  81  11596.9  1367.575410   -27.5438   -29.6193     0.3832
  82  11594.1  1367.587617   -30.1015   -29.6177     0.4509
  83  11591.3  1367.599824   -28.9203   -29.6160     0.3874
  84  11588.5  1367.612031   -28.9723   -29.6144     1.7950
  85  11585.8  1367.624238   -24.4125   -29.6127     2.4910
  86  11583.0  1367.636445   -30.6895   -29.6111     0.3368
  87  11580.2  1367.648652   -31.3056   -29.6094    -1.7696
  88  11577.4  1367.660859   -32.2156   -29.6078    -1.9518
  89  11574.7  1367.673066   -30.5017   -29.6062    -0.7943
  90  11571.9  1367.685273   -28.3827   -29.6045     0.5374
  91  11569.1  1367.697480   -29.0016   -29.6029     1.0943
  92  11566.3  1367.709687   -27.6483   -29.6012     1.3821
  93  11563.5  1367.721894   -28.5782   -29.5996     1.0444
  94  11560.8  1367.734101   -29.4163   -29.5980     0.2993
  95  11558.0  1367.746308   -29.7841   -29.5963    -0.0362
  96  11555.2  1367.758515   -29.5457   -29.5947    -0.3705
  97  11552.4  1367.770722   -30.9852   -29.5931    -0.7971
  98  11549.6  1367.782929   -30.0445   -29.5914    -0.4500
  99  11546.9  1367.795136   -29.0915   -29.5898    -0.1226
 100  11544.1  1367.807344   -30.6222   -29.5882    -0.5863
 101  11541.3  1367.819551   -30.3619   -29.5865    -0.1934
 102  11538.5  1367.831758   -27.7739   -29.5849     0.3745
 103  11535.7  1367.843965   -30.9319   -29.5833    -0.4576
 104  11533.0  1367.856172   -30.5258   -29.5816    -0.3947
 105  11530.2  1367.868379   -27.9219   -29.5800     1.0440
 106  11527.4  1367.880586   -27.7745   -29.5784     1.7579
 107  11524.6  1367.892793   -27.8108   -29.5768     0.8014
 108  11521.9  1367.905000   -31.7055   -29.5751    -1.3415
 109  11519.1  1367.917207   -32.4448   -29.5735    -1.2446
 110  11516.3  1367.929414   -26.6776   -29.5719     1.3730
 111  11513.5  1367.941621   -26.9957   -29.5703     2.2346
 112  11510.7  1367.953828   -28.6738   -29.5687     1.3949
 113  11508.0  1367.966035   -28.3515   -29.5670     1.0895
 114  11505.2  1367.978242   -28.5331   -29.5654     0.7327
 115  11502.4  1367.990449   -29.9131   -29.5638     0.3957
 116  11499.6  1368.002656   -28.3132   -29.5622     0.5897
 117  11496.9  1368.014863   -29.3506   -29.5606     0.3796
 118  11494.1  1368.027070   -29.7095   -29.5590    -0.4630
 119  11491.3  1368.039277   -31.3184   -29.5574    -1.3238
 120  11488.5  1368.051484   -31.1785   -29.5558    -0.9529
 121  11485.7  1368.063691   -28.3594   -29.5541    -0.3983
 122  11483.0  1368.075898   -31.9124   -29.5525    -1.5205
 123  11480.2  1368.088105   -32.1081   -29.5509    -1.2138
 124  11477.4  1368.100312   -26.9302   -29.5493    -0.2394
 125  11474.6  1368.112519   -33.1865   -29.5477    -0.7177
 126  11471.9  1368.124726   -27.7583   -29.5461    -0.5698
 127  11469.1  1368.136933   -31.7606   -29.5445    -0.6281
 128  11466.3  1368.149140   -29.4111   -29.5429    -0.0652
 129  11463.5  1368.161347   -27.8499   -29.5413     0.8616
 130  11460.8  1368.173554   -29.6080   -29.5397     0.1266
 131  11458.0  1368.185761   -30.5868   -29.5381    -0.5841
 132  11455.2  1368.197969   -29.7074   -29.5365    -0.4498
 133  11452.4  1368.210176   -29.9438   -29.5349    -0.4777
 134  11449.6  1368.222383   -30.4555   -29.5333     0.2157
 135  11446.9  1368.234590   -26.4157   -29.5317     1.1895
 136  11444.1  1368.246797   -30.0821   -29.5301     0.7461
 137  11441.3  1368.259004   -28.5564   -29.5286     0.0741
 138  11438.5  1368.271211   -30.6231   -29.5270    -0.7539
 139  11435.8  1368.283418   -31.3210   -29.5254    -1.3653
 140  11433.0  1368.295625   -30.2978   -29.5238    -0.4879
 141  11430.2  1368.307832   -28.1301   -29.5222     0.2130
 142  11427.4  1368.320039   -30.6786   -29.5206    -0.0666
 143  11424.7  1368.332246   -28.8614   -29.5190    -0.2912
 144  11421.9  1368.344453   -30.8394   -29.5175    -0.3009
 145  11419.1  1368.356660   -28.7330   -29.5159     0.1494
 146  11416.3  1368.368867   -29.1604   -29.5143     0.8096
 147  11413.5  1368.381074   -27.7650   -29.5127     1.9019
 148  11410.8  1368.393281   -25.7528   -29.5111     3.2736
 149  11408.0  1368.405488   -25.6794   -29.5095     3.1420
 150  11405.2  1368.417695   -28.3585   -29.5080     1.1039
 151  11402.4  1368.429902   -31.2199   -29.5064    -0.8110
 152  11399.7  1368.442109   -30.4712   -29.5048    -0.8492
 153  11396.9  1368.454316   -29.2539   -29.5032     0.0924
 154  11394.1  1368.466523   -28.6647   -29.5017     0.0417
 155  11391.3  1368.478730   -31.2568   -29.5001    -0.4620
 156  11388.6  1368.490937   -28.6699   -29.4985     0.3984
 157  11385.8  1368.503144   -27.8037   -29.4970     0.8669
 158  11383.0  1368.515351   -30.2428   -29.4954     0.4663
 159  11380.2  1368.527558   -27.8270   -29.4938     0.9155
 160  11377.5  1368.539765   -28.4166   -29.4923     1.5281
 161  11374.7  1368.551972   -27.1964   -29.4907     1.1807
 162  11371.9  1368.564179   -30.4306   -29.4891     0.8013
 163  11369.1  1368.576386   -26.6935   -29.4876     1.4260
 164  11366.4  1368.588594   -28.4285   -29.4860     2.6693
 165  11363.6  1368.600801   -23.7165   -29.4844     3.2428
 166  11360.8  1368.613008   -29.1049   -29.4829     1.1277
 167  11358.0  1368.625215   -31.4944   -29.4813    -1.2086
 168  11355.3  1368.637422   -30.6658   -29.4798    -0.4941
 169  11352.5  1368.649629   -27.0695   -29.4782     1.7887
 170  11349.7  1368.661836   -25.9534   -29.4767     2.5390
 171  11346.9  1368.674043   -28.7744   -29.4751     1.2007
 172  11344.2  1368.686250   -29.5953   -29.4735     0.8595
 173  11341.4  1368.698457   -26.4911   -29.4720     1.2798
 174  11338.6  1368.710664   -30.1914   -29.4704     0.4015
 175  11335.8  1368.722871   -29.4020   -29.4689    -0.7530
 176  11333.1  1368.735078   -31.8923   -29.4673    -1.5683
 177  11330.3  1368.747285   -30.9560   -29.4658    -2.2473
 178  11327.5  1368.759492   -33.0482   -29.4642    -1.3397
 179  11324.7  1368.771699   -26.1633   -29.4627     1.1064
 180  11322.0  1368.783906   -28.0504   -29.4612     1.7529
 181  11319.2  1368.796113   -28.5690   -29.4596     1.3664
 182  11316.4  1368.808320   -27.1846   -29.4581     1.1997
 183  11313.6  1368.820527   -30.0952   -29.4565     0.5053
 184  11310.9  1368.832734   -28.4299   -29.4550     0.9447
 185  11308.1  1368.844941   -27.0862   -29.4535     0.8920
 186  11305.3  1368.857148   -31.6436   -29.4519     0.0210
 187  11302.5  1368.869355   -27.3503   -29.4504     0.0578
 188  11299.8  1368.881562   -31.2261   -29.4488    -0.8524
 189  11297.0  1368.893769   -31.4023   -29.4473    -0.9686
 190  11294.2  1368.905976   -27.6328   -29.4458     0.1035
 191  11291.4  1368.918183   -30.7012   -29.4442    -0.1989
 192  11288.7  1368.930390   -29.5373   -29.4427    -0.2986
 193  11285.9  1368.942597   -29.1895   -29.4412    -0.3193
 194  11283.1  1368.954804   -31.1255   -29.4396    -0.8531
 195  11280.3  1368.967011   -29.7304   -29.4381    -1.3308
 196  11277.6  1368.979219   -32.4894   -29.4366    -1.2204
 197  11274.8  1368.991426   -27.9188   -29.4351    -0.4805
 198  11272.0  1369.003633   -31.3355   -29.4335    -0.6455
 199  11269.3  1369.015840   -29.7262   -29.4320    -0.8487
 200  11266.5  1369.028047   -30.3348   -29.4305    -0.5665
 201  11263.7  1369.040254   -29.5921   -29.4290    -0.5149
 202  11260.9  1369.052461   -30.2564   -29.4274    -0.2362
 203  11258.2  1369.064668   -28.5495   -29.4259     0.0040
 204  11255.4  1369.076875   -30.3322   -29.4244     0.3938
 205  11252.6  1369.089082   -26.9083   -29.4229     1.4278
 206  11249.8  1369.101289   -27.8315   -29.4214     1.9620
 207  11247.1  1369.113496   -27.2663   -29.4199     1.6307
 208  11244.3  1369.125703   -28.7926   -29.4183     1.1604
 209  11241.5  1369.137910   -28.1804   -29.4168     0.6206
 210  11238.7  1369.150117   -30.0316   -29.4153    -0.6327
 211  11236.0  1369.162324   -31.9486   -29.4138    -2.1401
 212  11233.2  1369.174531   -32.2868   -29.4123    -1.9111
 213  11230.4  1369.186738   -28.7714   -29.4108    -0.2036
 214  11227.7  1369.198945   -28.6280   -29.4093     0.4646
 215  11224.9  1369.211152   -29.7515   -29.4078    -0.6609
 216  11222.1  1369.223359   -32.1437   -29.4063    -1.8094
 217  11219.3  1369.235566   -30.8238   -29.4048    -1.1222
 218  11216.6  1369.247773   -28.3164   -29.4033    -0.3667
 219  11213.8  1369.259980   -31.6232   -29.4018    -1.3158
 220  11211.0  1369.272187   -31.3076   -29.4003    -1.3677
 221  11208.2  1369.284394   -28.8334   -29.3988    -0.4424
 222  11205.5  1369.296601   -30.3901   -29.3973    -0.5795
 223  11202.7  1369.308808   -30.2934   -29.3958    -0.0225
 224  11199.9  1369.321015   -26.6962   -29.3943     1.4155
 225  11197.2  1369.333222   -28.2294   -29.3928     0.4839
 226  11194.4  1369.345429   -32.4806   -29.3913    -0.8470
 227  11191.6  1369.357636   -27.7624   -29.3898     0.1100
 228  11188.8  1369.369844   -29.1136   -29.3883     0.0714
 229  11186.1  1369.382051   -31.2778   -29.3868    -0.5113
 230  11183.3  1369.394258   -27.9233   -29.3853     0.2383
 231  11180.5  1369.406465   -29.4637   -29.3838     0.9747
 232  11177.8  1369.418672   -26.7856   -29.3823     0.9880
 233  11175.0  1369.430879   -30.5423   -29.3808     0.0422
 234  11172.2  1369.443086   -29.4844   -29.3793    -0.8363
 235  11169.4  1369.455293   -31.3515   -29.3779    -0.8261
 236  11166.7  1369.467500   -28.6286   -29.3764    -0.4100
 237  11163.9  1369.479707   -30.5370   -29.3749    -0.5132
 238  11161.1  1369.491914   -29.8498   -29.3734    -0.5668
 239  11158.3  1369.504121   -29.5241   -29.3719     0.3363
 240  11155.6  1369.516328   -27.2443   -29.3704     1.0480
 241  11152.8  1369.528535   -29.2770   -29.3690     0.0302
 242  11150.0  1369.540742   -31.5568   -29.3675    -1.4599
 243  11147.3  1369.552949   -30.9188   -29.3660    -1.6874
 244  11144.5  1369.565156   -30.8192   -29.3645    -1.5205
 245  11141.7  1369.577363   -30.9827   -29.3631    -2.0775
 246  11138.9  1369.589570   -32.9776   -29.3616    -1.8854
 247  11136.2  1369.601777   -28.0500   -29.3601    -0.5569
 248  11133.4  1369.613984   -30.5904   -29.3586    -0.7722
 249  11130.6  1369.626191   -31.2928   -29.3572    -1.6604
 250  11127.9  1369.638398   -30.8942   -29.3557    -2.2885
 251  11125.1  1369.650605   -33.4957   -29.3542    -2.9870
 252  11122.3  1369.662812   -31.4794   -29.3528    -1.9914
 253  11119.5  1369.675019   -28.9220   -29.3513    -0.6343
 254  11116.8  1369.687226   -30.6188   -29.3498    -1.3940
 255  11114.0  1369.699433   -32.8159   -29.3484    -2.4154
 256  11111.2  1369.711640   -30.8044   -29.3469    -1.2472
 257  11108.5  1369.723847   -27.9519   -29.3454     0.3472
 258  11105.7  1369.736054   -29.2847   -29.3440     1.0173
 259  11102.9  1369.748261   -26.7854   -29.3425     2.4451
 260  11100.2  1369.760469   -24.7343   -29.3411     2.6563
 261  11097.4  1369.772676   -30.4851   -29.3396     1.1834
 262  11094.6  1369.784883   -26.9201   -29.3382     0.3725
 263  11091.8  1369.797090   -31.5374   -29.3367    -1.3522
 264  11089.1  1369.809297   -32.7608   -29.3352    -2.4971
 265  11086.3  1369.821504   -30.2706   -29.3338    -2.4203
 266  11083.5  1369.833711   -33.7143   -29.3323    -2.6341
 267  11080.8  1369.845918   -30.1664   -29.3309    -1.7208
 268  11078.0  1369.858125   -30.1595   -29.3294    -0.5911
 269  11075.2  1369.870332   -29.1965   -29.3280    -0.8451
 270  11072.5  1369.882539   -32.1399   -29.3265    -0.7044
 271  11069.7  1369.894746   -26.6474   -29.3251     0.7604
 272  11066.9  1369.906953   -28.8241   -29.3236     0.7008
 273  11064.1  1369.919160   -30.1957   -29.3222    -0.7216
 274  11061.4  1369.931367   -30.9599   -29.3208    -1.3688
 275  11058.6  1369.943574   -30.6429   -29.3193    -1.1286
 276  11055.8  1369.955781   -29.5460   -29.3179    -0.9146
 277  11053.1  1369.967988   -31.1950   -29.3164    -0.5902
 278  11050.3  1369.980195   -27.6905   -29.3150    -0.0800
 279  11047.5  1369.992402   -31.0040   -29.3136    -0.8638
 280  11044.8  1370.004609   -31.0109   -29.3121    -1.2507
 281  11042.0  1370.016816   -29.2255   -29.3107    -0.0760
 282  11039.2  1370.029023   -28.0846   -29.3093     0.9002
 283  11036.4  1370.041230   -28.2417   -29.3078     1.1934
 284  11033.7  1370.053437   -27.8898   -29.3064     1.4227
 285  11030.9  1370.065644   -27.5133   -29.3050     1.5140
 286  11028.1  1370.077851   -28.2473   -29.3035     0.2235
 287  11025.4  1370.090058   -32.3122   -29.3021    -0.9144
 288  11022.6  1370.102265   -27.9944   -29.3007    -0.3266
 289  11019.8  1370.114472   -30.2081   -29.2992     0.0675
 290  11017.1  1370.126679   -28.5164   -29.2978     0.1552
 291  11014.3  1370.138886   -29.3297   -29.2964    -0.5623
 292  11011.5  1370.151094   -32.2591   -29.2950    -2.1039
 293  11008.8  1370.163301   -31.7477   -29.2935    -2.4713
 294  11006.0  1370.175508   -31.3049   -29.2921    -1.7390
 295  11003.2  1370.187715   -29.7670   -29.2907    -0.9173
 296  11000.4  1370.199922   -29.9930   -29.2893    -0.3569
 297  10997.7  1370.212129   -28.8317   -29.2879    -0.1019
 298  10994.9  1370.224336   -29.9025   -29.2864    -0.0997
 299  10992.1  1370.236543   -28.9079   -29.2850     0.0273
 300  10989.4  1370.248750   -29.3126   -29.2836     0.0527
 301  10986.6  1370.260957   -29.3905   -29.2822    -0.5921
 302  10983.8  1370.273164   -31.4035   -29.2808    -2.0215
 303  10981.1  1370.285371   -33.0116   -29.2794    -2.7109
 304  10978.3  1370.297578   -30.5344   -29.2780    -0.9545
 305  10975.5  1370.309785   -26.8493   -29.2765     1.0263
 306  10972.8  1370.321992   -28.7682   -29.2751     1.0269
 307  10970.0  1370.334199   -28.6072   -29.2737     0.6675
 308  10967.2  1370.346406   -28.4423   -29.2723     0.4584
 309  10964.5  1370.358613   -29.7640   -29.2709    -0.2611
 310  10961.7  1370.370820   -30.1577   -29.2695    -0.5515
 311  10958.9  1370.383027   -29.2048   -29.2681    -0.5193
 312  10956.1  1370.395234   -30.5822   -29.2667    -0.0732
 313  10953.4  1370.407441   -26.9904   -29.2653     1.3591
 314  10950.6  1370.419648   -27.0620   -29.2639     1.7177
 315  10947.8  1370.431855   -29.0702   -29.2625     0.4507
 316  10945.1  1370.444062   -30.0447   -29.2611    -0.8238
 317  10942.3  1370.456269   -31.1801   -29.2597    -2.0632
 318  10939.5  1370.468476   -32.8868   -29.2583    -1.7432
 319  10936.8  1370.480683   -27.0522   -29.2569     0.3758
 320  10934.0  1370.492890   -28.5331   -29.2555     1.1128
 321  10931.2  1370.505097   -28.4525   -29.2541     0.1969
 322  10928.5  1370.517304   -30.7907   -29.2527    -0.5020
 323  10925.7  1370.529511   -28.9850   -29.2513    -0.3327
 324  10922.9  1370.541719   -29.5756   -29.2499     0.5022
 325  10920.2  1370.553926   -26.8549   -29.2486     1.4066
 326  10917.4  1370.566133   -28.0824   -29.2472     1.3065
 327  10914.6  1370.578340   -28.7431   -29.2458     0.0776
 328  10911.9  1370.590547   -31.1041   -29.2444    -0.9643
 329  10909.1  1370.602754   -29.8837   -29.2430    -0.7001
 330  10906.3  1370.614961   -28.9010   -29.2416     0.7894
 331  10903.6  1370.627168   -26.1233   -29.2402     1.1451
 332  10900.8  1370.639375   -31.2331   -29.2389    -0.0280
 333  10898.0  1370.651582   -28.4782   -29.2375    -0.2813
 334  10895.3  1370.663789   -29.8859   -29.2361     0.0585
 335  10892.5  1370.675996   -28.4606   -29.2347     0.1250
 336  10889.7  1370.688203   -29.6320   -29.2334    -0.1976
 337  10887.0  1370.700410   -29.9992   -29.2320    -0.3794
 338  10884.2  1370.712617   -28.8152   -29.2306     0.7509
 339  10881.4  1370.724824   -26.2890   -29.2292     1.7349
 340  10878.7  1370.737031   -28.5839   -29.2279     1.8494
 341  10875.9  1370.749238   -26.0569   -29.2265     2.6224
 342  10873.1  1370.761445   -25.7188   -29.2251     3.0645
 343  10870.4  1370.773652   -27.1479   -29.2237     1.5680
 344  10867.6  1370.785859   -30.6082   -29.2224     0.0211
 345  10864.8  1370.798066   -28.4408   -29.2210    -0.3416
 346  10862.1  1370.810273   -30.7608   -29.2196    -0.9723
 347  10859.3  1370.822480   -30.8053   -29.2183    -1.8980
 348  10856.5  1370.834687   -32.0935   -29.2169    -1.8566
 349  10853.8  1370.846894   -29.3019   -29.2155    -0.8490
 350  10851.0  1370.859101   -29.5610   -29.2142    -0.2466
 351  10848.2  1370.871308   -29.4192   -29.2128    -0.0585
 352  10845.5  1370.883515   -28.6860   -29.2115     0.5492
 353  10842.7  1370.895722   -27.8577   -29.2101     0.5123
 354  10839.9  1370.907929   -30.3897   -29.2087    -0.5078
 355  10837.2  1370.920136   -30.2293   -29.2074    -1.0928
 356  10834.4  1370.932344   -30.3527   -29.2060    -0.8766
 357  10831.6  1370.944551   -29.3960   -29.2047    -0.1517
 358  10828.9  1370.956758   -28.2811   -29.2033     0.6504
 359  10826.1  1370.968965   -28.2537   -29.2020     0.6645
 360  10823.3  1370.981172   -29.3614   -29.2006     0.1983
 361  10820.6  1370.993379   -29.0327   -29.1993     0.4353
 362  10817.8  1371.005586   -27.6292   -29.1979     0.9420
 363  10815.0  1371.017793   -28.7327   -29.1966     0.5314
 364  10812.3  1371.030000   -29.5660   -29.1952     0.5151
 365  10809.5  1371.042207   -26.8558   -29.1939     1.0941
 366  10806.7  1371.054414   -29.1215   -29.1925     0.6934
 367  10804.0  1371.066621   -28.8977   -29.1912     0.0467
 368  10801.2  1371.078828   -29.6610   -29.1898    -0.2728
 369  10798.5  1371.091035   -29.6310   -29.1885    -0.4756
 370  10795.7  1371.103242   -29.7334   -29.1872    -0.1150
 371  10792.9  1371.115449   -28.1107   -29.1858     0.2522
 372  10790.2  1371.127656   -29.7796   -29.1845     0.4832
 373  10787.4  1371.139863   -27.1354   -29.1831    -0.1288
 374  10784.6  1371.152070   -33.1973   -29.1818    -1.1632
 375  10781.9  1371.164277   -27.8500   -29.1805    -1.4966
 376  10779.1  1371.176484   -33.8110   -29.1791    -2.4520
 377  10776.3  1371.188691   -31.0526   -29.1778    -1.7695
 378  10773.6  1371.200898   -27.8731   -29.1765     0.0378
 379  10770.8  1371.213105   -29.7558   -29.1751    -0.2387
 380  10768.0  1371.225312   -30.2704   -29.1738    -1.5900
 381  10765.3  1371.237519   -32.7587   -29.1725    -2.2748
 382  10762.5  1371.249726   -30.0013   -29.1712    -0.8079
 383  10759.7  1371.261933   -27.1550   -29.1698     0.4613
 384  10757.0  1371.274140   -30.5227   -29.1685    -0.2044
 385  10754.2  1371.286347   -29.2912   -29.1672    -0.1790
 386  10751.4  1371.298554   -28.2795   -29.1659     0.1458
 387  10748.7  1371.310761   -30.2300   -29.1645    -0.5446
 388  10745.9  1371.322969   -30.0969   -29.1632    -0.6204
 389  10743.2  1371.335176   -28.7107   -29.1619     0.5540
 390  10740.4  1371.347383   -26.9132   -29.1606     0.8515
 391  10737.6  1371.359590   -30.6991   -29.1593    -0.3764
 392  10734.9  1371.371797   -29.8312   -29.1579    -0.6031
 393  10732.1  1371.384004   -28.6826   -29.1566     0.4321
 394  10729.3  1371.396211   -27.7016   -29.1553     0.7681
 395  10726.6  1371.408418   -29.4629   -29.1540     0.6403
 396  10723.8  1371.420625   -27.4275   -29.1527     1.0483
 397  10721.0  1371.432832   -28.0997   -29.1514     0.7016
 398  10718.3  1371.445039   -30.1721   -29.1501    -0.3139
 399  10715.5  1371.457246   -29.4121   -29.1487    -1.4376
 400  10712.8  1371.469453   -33.3491   -29.1474    -1.7877
 401  10710.0  1371.481660   -27.6301   -29.1461    -0.6852
 402  10707.2  1371.493867   -30.7158   -29.1448    -0.9619
 403  10704.5  1371.506074   -31.3651   -29.1435    -2.3151
 404  10701.7  1371.518281   -32.3883   -29.1422    -1.9891
 405  10698.9  1371.530488   -28.3835   -29.1409    -0.5096
 406  10696.2  1371.542695   -29.4467   -29.1396    -0.5120
 407  10693.4  1371.554902   -31.3294   -29.1383    -2.1999
 408  10690.6  1371.567109   -33.2474   -29.1370    -3.0576
 409  10687.9  1371.579316   -30.9545   -29.1357    -1.7724
 410  10685.1  1371.591523   -28.4759   -29.1344    -0.2371
 411  10682.4  1371.603730   -29.5796   -29.1331     0.1840
 412  10679.6  1371.615937   -28.1613   -29.1318     1.0959
 413  10676.8  1371.628144   -26.2414   -29.1305     1.5686
 414  10674.1  1371.640351   -29.6036   -29.1292     0.8139
 415  10671.3  1371.652558   -27.8128   -29.1279    -0.4729
 416  10668.5  1371.664765   -33.1739   -29.1266    -1.4094
 417  10665.8  1371.676972   -27.9834   -29.1254    -0.5874
 418  10663.0  1371.689179   -29.7103   -29.1241    -0.3322
 419  10660.3  1371.701386   -30.4208   -29.1228    -1.1160
 420  10657.5  1371.713594   -30.4033   -29.1215    -0.0539
 421  10654.7  1371.725801   -25.4743   -29.1202     0.7437
 422  10652.0  1371.738008   -32.1541   -29.1189    -0.3223
 423  10649.2  1371.750215   -27.9826   -29.1176    -0.1743
 424  10646.4  1371.762422   -29.0484   -29.1163     0.3814
 425  10643.7  1371.774629   -28.8604   -29.1151     0.7569
 426  10640.9  1371.786836   -26.6634   -29.1138     1.4246
 427  10638.1  1371.799043   -28.5694   -29.1125     1.0221
 428  10635.4  1371.811250   -28.5594   -29.1112     0.3368
 429  10632.6  1371.823457   -29.4096   -29.1099    -0.2195
 430  10629.9  1371.835664   -29.9391   -29.1087    -1.1700
 431  10627.1  1371.847871   -31.8268   -29.1074    -1.2740
 432  10624.3  1371.860078   -27.9329   -29.1061    -0.2024
 433  10621.6  1371.872285   -29.5414   -29.1048    -0.8073
 434  10618.8  1371.884492   -32.6331   -29.1036    -2.4873
 435  10616.1  1371.896699   -31.5558   -29.1023    -2.0201
 436  10613.3  1371.908906   -28.7447   -29.1010    -1.3026
 437  10610.5  1371.921113   -32.5693   -29.0998    -0.9793
 438  10607.8  1371.933320   -26.4331   -29.0985     1.0969
 439  10605.0  1371.945527   -26.5709   -29.0972     1.8325
 440  10602.2  1371.957734   -29.4838   -29.0960    -0.1209
 441  10599.5  1371.969941   -31.3288   -29.0947    -0.8722
 442  10596.7  1371.982148   -27.7262   -29.0934    -0.1697
 443  10594.0  1371.994355   -30.2714   -29.0922    -0.2502
 444  10591.2  1372.006562   -29.1006   -29.0909    -0.5828
 445  10588.4  1372.018769   -30.2224   -29.0896    -1.0684
 446  10585.7  1372.030976   -31.0870   -29.0884    -1.0280
 447  10582.9  1372.043183   -28.0692   -29.0871    -0.1927
 448  10580.2  1372.055390   -29.8939   -29.0859    -0.4577
 449  10577.4  1372.067597   -30.3175   -29.0846    -1.4930
 450  10574.6  1372.079804   -31.7818   -29.0834    -2.5356
 451  10571.9  1372.092011   -32.5948   -29.0821    -1.6801
 452  10569.1  1372.104219   -26.0773   -29.0809     0.6254
 453  10566.3  1372.116426   -29.0722   -29.0796     0.5719
 454  10563.6  1372.128633   -29.8092   -29.0783    -0.7790
 455  10560.8  1372.140840   -30.7387   -29.0771    -0.8081
 456  10558.1  1372.153047   -28.2540   -29.0758     0.5430
 457  10555.3  1372.165254   -26.8847   -29.0746     1.5272
 458  10552.5  1372.177461   -28.1663   -29.0734     1.6029
 459  10549.8  1372.189668   -26.6646   -29.0721     0.5875
 460  10547.0  1372.201875   -32.4431   -29.0709    -1.7782
 461  10544.3  1372.214082   -31.8452   -29.0696    -2.6583
 462  10541.5  1372.226289   -30.7779   -29.0684    -1.6059
 463  10538.7  1372.238496   -29.2962   -29.0671    -1.0283
 464  10536.0  1372.250703   -31.0113   -29.0659    -0.8063
 465  10533.2  1372.262910   -28.1700   -29.0647     0.0404
 466  10530.5  1372.275117   -28.7457   -29.0634     0.7952
 467  10527.7  1372.287324   -27.4115   -29.0622     0.7835
 468  10524.9  1372.299531   -29.5462   -29.0609     0.5601
 469  10522.2  1372.311738   -27.4996   -29.0597     1.0099
 470  10519.4  1372.323945   -27.6539   -29.0585     0.5477
 471  10516.7  1372.336152   -31.2357   -29.0572    -0.9439
 472  10513.9  1372.348359   -29.8794   -29.0560    -1.1294
 473  10511.1  1372.360566   -29.7469   -29.0548    -0.2902
 474  10508.4  1372.372773   -28.0066   -29.0535     0.1835
 475  10505.6  1372.384980   -29.7200   -29.0523     0.2349
 476  10502.9  1372.397187   -27.8228   -29.0511    -0.1620
 477  10500.1  1372.409394   -31.4869   -29.0499    -0.5595
 478  10497.3  1372.421601   -27.6408   -29.0486     0.0997
 479  10494.6  1372.433808   -29.0274   -29.0474     0.7598
 480  10491.8  1372.446015   -27.4550   -29.0462     1.0795
 481  10489.1  1372.458222   -27.9293   -29.0450     1.3790
 482  10486.3  1372.470429   -27.3503   -29.0437     1.2518
 483  10483.5  1372.482636   -28.5380   -29.0425    -0.0144
 484  10480.8  1372.494844   -31.8016   -29.0413    -1.1050
 485  10478.0  1372.507051   -28.4440   -29.0401    -0.8758
 486  10475.3  1372.519258   -30.9739   -29.0389    -0.8755
 487  10472.5  1372.531465   -29.2654   -29.0377    -0.7254
 488  10469.7  1372.543672   -29.5472   -29.0364    -0.7165
 489  10467.0  1372.555879   -30.6519   -29.0352    -1.1259
 490  10464.2  1372.568086   -29.7933   -29.0340    -1.2858
 491  10461.5  1372.580293   -31.0406   -29.0328    -0.8368
 492  10458.7  1372.592500   -27.6037   -29.0316     0.2730
 493  10455.9  1372.604707   -28.7865   -29.0304     0.3084
 494  10453.2  1372.616914   -29.7113   -29.0292     0.4648
 495  10450.4  1372.629121   -26.0483   -29.0280     1.6983
 496  10447.7  1372.641328   -27.5105   -29.0268     0.8301
 497  10444.9  1372.653535   -31.7173   -29.0255    -1.4537
 498  10442.1  1372.665742   -30.9718   -29.0243    -0.9307
 499  10439.4  1372.677949   -26.1591   -29.0231     0.9379
 500  10436.6  1372.690156   -29.0510   -29.0219     0.1409
 501  10433.9  1372.702363   -31.2629   -29.0207    -1.8923
 502  10431.1  1372.714570   -32.0751   -29.0195    -2.7051
 503  10428.4  1372.726777   -31.4855   -29.0183    -2.8490
 504  10425.6  1372.738984   -32.4234   -29.0171    -2.6060
 505  10422.8  1372.751191   -30.1600   -29.0159    -1.2884
 506  10420.1  1372.763398   -28.4738   -29.0147     0.6830
 507  10417.3  1372.775605   -26.2194   -29.0136     1.9682
 508  10414.6  1372.787812   -27.2688   -29.0124     1.6924
 509  10411.8  1372.800019   -28.5228   -29.0112     0.5852
 510  10409.0  1372.812226   -29.3897   -29.0100     0.2961
 511  10406.3  1372.824433   -27.5534   -29.0088     0.1111
 512  10403.5  1372.836640   -31.0945   -29.0076    -0.0628
 513  10400.8  1372.848847   -26.5394   -29.0064     0.1869
 514  10398.0  1372.861054   -31.1046   -29.0052    -0.5131
 515  10395.2  1372.873261   -29.3249   -29.0040    -0.9732
 516  10392.5  1372.885469   -30.1546   -29.0028    -0.5364
 517  10389.7  1372.897676   -28.5228   -29.0017    -0.1634
 518  10387.0  1372.909883   -29.4599   -29.0005     0.6878
 519  10384.2  1372.922090   -25.8082   -28.9993     2.1541
 520  10381.5  1372.934297   -26.3044   -28.9981     2.2601
 521  10378.7  1372.946504   -28.5351   -28.9969     0.8207
 522  10375.9  1372.958711   -29.3305   -28.9958    -0.0811
 523  10373.2  1372.970918   -29.1114   -28.9946    -0.4034
 524  10370.4  1372.983125   -30.0384   -28.9934    -0.6042
 525  10367.7  1372.995332   -29.2022   -28.9922    -0.8372
 526  10364.9  1373.007539   -30.8747   -28.9910    -0.9380
 527  10362.2  1373.019746   -28.7645   -28.9899    -0.3613
 528  10359.4  1373.031953   -29.0011   -28.9887     0.4981
 529  10356.6  1373.044160   -27.1957   -28.9875     1.1831
 530  10353.9  1373.056367   -27.8252   -28.9864     1.3295
 531  10351.1  1373.068574   -27.7812   -28.9852     0.9929
 532  10348.4  1373.080781   -28.5816   -28.9840     0.5978
 533  10345.6  1373.092988   -28.6003   -28.9829     0.1876
 534  10342.9  1373.105195   -29.3988   -28.9817     0.3741
 535  10340.1  1373.117402   -27.0325   -28.9805     0.4738
 536  10337.3  1373.129609   -30.5630   -28.9794    -0.2179
 537  10334.6  1373.141816   -28.6307   -28.9782     0.0491
 538  10331.8  1373.154023   -27.8920   -28.9770     1.2048
 539  10329.1  1373.166230   -26.6743   -28.9759     1.5418
 540  10326.3  1373.178437   -28.4960   -28.9747     0.7649
 541  10323.6  1373.190644   -29.1729   -28.9736     0.9722
 542  10320.8  1373.202851   -25.1636   -28.9724     2.3993
 543  10318.0  1373.215058   -26.7923   -28.9712     3.1674
 544  10315.3  1373.227265   -24.4673   -28.9701     3.7186
 545  10312.5  1373.239472   -25.2790   -28.9689     3.0488
 546  10309.8  1373.251679   -28.6554   -28.9678     1.0660
 547  10307.0  1373.263886   -29.0174   -28.9666     0.4550
 548  10304.3  1373.276094   -27.3563   -28.9655     0.4143
 549  10301.5  1373.288301   -30.4746   -28.9643     0.0807
 550  10298.7  1373.300508   -27.2289   -28.9632     0.8910
 551  10296.0  1373.312715   -27.3565   -28.9620     1.0852
 552  10293.2  1373.324922   -29.5654   -28.9609     0.4450
 553  10290.5  1373.337129   -27.5760   -28.9597     1.4091
 554  10287.7  1373.349336   -25.4850   -28.9586     2.2186
 555  10285.0  1373.361543   -28.4141   -28.9574     1.7828
 556  10282.2  1373.373750   -26.3854   -28.9563     2.1743
 557  10279.5  1373.385957   -25.9432   -28.9552     2.8085
 558  10276.7  1373.398164   -26.3149   -28.9540     3.0613
 559  10273.9  1373.410371   -24.9978   -28.9529     3.8698
 560  10271.2  1373.422578   -24.0220   -28.9517     3.6145
 561  10268.4  1373.434785   -28.3071   -28.9506     1.7440
 562  10265.7  1373.446992   -28.1902   -28.9495     0.9637
 563  10262.9  1373.459199   -27.2554   -28.9483     1.8019
 564  10260.2  1373.471406   -25.8846   -28.9472     1.7562
 565  10257.4  1373.483613   -29.7392   -28.9461     0.4509
 566  10254.7  1373.495820   -28.6176   -28.9449     0.0168
 567  10251.9  1373.508027   -28.7381   -28.9438     0.1902
 568  10249.1  1373.520234   -28.9205   -28.9427    -0.5275
 569  10246.4  1373.532441   -31.3016   -28.9415    -1.4317
 570  10243.6  1373.544648   -29.9694   -28.9404    -0.0539
 571  10240.9  1373.556855   -24.7369   -28.9393     2.0328
 572  10238.1  1373.569062   -28.1826   -28.9381     1.4772
 573  10235.4  1373.581269   -28.7415   -28.9370     0.2448
 574  10232.6  1373.593476   -29.1033   -28.9359    -0.6022
 575  10229.9  1373.605683   -31.2042   -28.9348    -0.8831
 576  10227.1  1373.617890   -27.7598   -28.9337     0.1322
 577  10224.3  1373.630097   -28.4822   -28.9325     0.0569
 578  10221.6  1373.642304   -30.7783   -28.9314    -0.5073
 579  10218.8  1373.654511   -27.7161   -28.9303     0.0232
 580  10216.1  1373.666719   -29.4180   -28.9292     0.3122
 581  10213.3  1373.678926   -27.9159   -28.9281     0.5057
 582  10210.6  1373.691133   -28.4395   -28.9269     0.0450
 583  10207.8  1373.703340   -30.7327   -28.9258    -0.7791
 584  10205.1  1373.715547   -28.9146   -28.9247    -0.8902
 585  10202.3  1373.727754   -30.6977   -28.9236    -1.2078
 586  10199.6  1373.739961   -30.2155   -28.9225    -0.6868
 587  10196.8  1373.752168   -27.3085   -28.9214     0.8416
 588  10194.0  1373.764375   -27.4867   -28.9203     1.4671
 589  10191.3  1373.776582   -27.5310   -28.9192     1.2302
 590  10188.5  1373.788789   -28.2070   -28.9181     0.7977
 591  10185.8  1373.800996   -28.5365   -28.9170     1.3764
 592  10183.0  1373.813203   -24.8823   -28.9158     3.0336
 593  10180.3  1373.825410   -25.2280   -28.9147     2.9220
 594  10177.5  1373.837617   -28.6329   -28.9136     1.3438
 595  10174.8  1373.849824   -27.7856   -28.9125     0.4702
 596  10172.0  1373.862031   -29.5653   -28.9114    -0.2067
 597  10169.3  1373.874238   -29.5561   -28.9103    -0.3779
 598  10166.5  1373.886445   -28.4753   -28.9092     0.2521
 599  10163.7  1373.898652   -28.1218   -28.9081     0.3070
 600  10161.0  1373.910859   -29.6856   -28.9070    -1.1372
 601  10158.2  1373.923066   -32.6840   -28.9059    -1.5889
 602  10155.5  1373.935273   -26.9259   -28.9049     0.2167
 603  10152.7  1373.947480   -28.2168   -28.9038     0.4296
 604  10150.0  1373.959687   -30.5372   -28.9027    -0.8454
 605  10147.2  1373.971894   -29.7011   -28.9016    -1.0440
 606  10144.5  1373.984101   -29.8428   -28.9005     0.1841
 607  10141.7  1373.996308   -25.4790   -28.8994     2.5605
 608  10139.0  1374.008515   -24.5548   -28.8983     3.8733
 609  10136.2  1374.020722   -25.5112   -28.8972     2.4616
 610  10133.5  1374.032929   -30.1652   -28.8961     0.6265
 611  10130.7  1374.045136   -27.2370   -28.8951     0.9058
 612  10127.9  1374.057344   -27.3178   -28.8940     0.5301
 613  10125.2  1374.069551   -31.5828   -28.8929    -0.3432
 614  10122.4  1374.081758   -26.4612   -28.8918     0.4302
 615  10119.7  1374.093965   -29.3413   -28.8907    -0.5907
 616  10116.9  1374.106172   -32.7820   -28.8896    -2.2157
 617  10114.2  1374.118379   -29.5162   -28.8886    -1.0365
 618  10111.4  1374.130586   -27.8859   -28.8875     0.3396
 619  10108.7  1374.142793   -28.9037   -28.8864     0.1495
 620  10105.9  1374.155000   -29.2544   -28.8853     0.9394
 621  10103.2  1374.167207   -24.3714   -28.8843     2.9044
 622  10100.4  1374.179414   -25.9223   -28.8832     2.6576
 623  10097.7  1374.191621   -28.6861   -28.8821     1.3659
 624  10094.9  1374.203828   -26.7704   -28.8810     1.4088
 625  10092.2  1374.216035   -27.6619   -28.8800     2.1007
 626  10089.4  1374.228242   -25.0230   -28.8789     2.1700
 627  10086.7  1374.240449   -29.1276   -28.8778     1.0375
 628  10083.9  1374.252656   -28.0832   -28.8768     0.9160
 629  10081.1  1374.264863   -26.5491   -28.8757     1.4129
 630  10078.4  1374.277070   -28.6701   -28.8746     0.6412
 631  10075.6  1374.289277   -29.0446   -28.8736     0.7780
 632  10072.9  1374.301484   -25.6229   -28.8725     1.0444
 633  10070.1  1374.313691   -31.0220   -28.8714    -0.2636
 634  10067.4  1374.325898   -28.8735   -28.8704    -0.5546
 635  10064.6  1374.338105   -28.9311   -28.8693    -0.0496
 636  10061.9  1374.350312   -28.9399   -28.8683     0.3224
 637  10059.1  1374.362519   -27.3725   -28.8672     1.1453
 638  10056.4  1374.374726   -27.2028   -28.8662     0.6738
 639  10053.6  1374.386933   -30.9912   -28.8651     0.4576
 640  10050.9  1374.399140   -24.4450   -28.8640     1.4078
 641  10048.1  1374.411347   -29.9437   -28.8630     0.5905
 642  10045.4  1374.423554   -28.7575   -28.8619     0.1891
 643  10042.6  1374.435761   -27.2325   -28.8609     0.6402
 644  10039.9  1374.447969   -29.6604   -28.8598     0.2093
 645  10037.1  1374.460176   -28.0491   -28.8588     0.3424
 646  10034.4  1374.472383   -28.3071   -28.8577    -0.0444
 647  10031.6  1374.484590   -30.9452   -28.8567    -0.7144
 648  10028.9  1374.496797   -28.0867   -28.8556    -1.3073
 649  10026.1  1374.509004   -33.5332   -28.8546    -1.6963
 650  10023.4  1374.521211   -27.0504   -28.8536    -0.7551
 651  10020.6  1374.533418   -30.8006   -28.8525     0.1266
 652  10017.9  1374.545625   -26.2523   -28.8515     1.2587
 653  10015.1  1374.557832   -27.0662   -28.8504     1.1800
 654  10012.4  1374.570039   -30.2973   -28.8494     0.0421
 655  10009.6  1374.582246   -27.5683   -28.8484     0.3613
 656  10006.8  1374.594453   -28.5143   -28.8473    -0.3664
 657  10004.1  1374.606660   -32.2581   -28.8463    -1.3301
 658  10001.3  1374.618867   -27.6750   -28.8452    -0.2867
 659   9998.6  1374.631074   -28.9197   -28.8442    -0.0066
 660   9995.8  1374.643281   -29.8888   -28.8432    -0.5009
 661   9993.1  1374.655488   -28.6790   -28.8421    -0.7132
 662   9990.3  1374.667695   -30.9746   -28.8411    -1.0825
 663   9987.6  1374.679902   -29.0663   -28.8401    -0.6591
 664   9984.8  1374.692109   -28.8896   -28.8391    -0.3629
 665   9982.1  1374.704316   -29.9622   -28.8380    -1.2543
 666   9979.3  1374.716523   -31.5554   -28.8370    -1.2322
 667   9976.6  1374.728730   -27.2038   -28.8360    -0.2685
 668   9973.8  1374.740937   -30.4550   -28.8349    -0.6124
 669   9971.1  1374.753144   -29.6756   -28.8339    -1.2853
 670   9968.3  1374.765351   -30.6707   -28.8329    -0.6658
 671   9965.6  1374.777558   -26.9778   -28.8319     0.0696
 672   9962.8  1374.789765   -30.4229   -28.8309    -0.5944
 673   9960.1  1374.801972   -29.8776   -28.8298    -0.5719
 674   9957.3  1374.814179   -27.4290   -28.8288     0.4292
 675   9954.6  1374.826386   -28.8628   -28.8278     0.7737
 676   9951.8  1374.838594   -27.0618   -28.8268     1.6145
 677   9949.1  1374.850801   -25.8630   -28.8258     1.7652
 678   9946.3  1374.863008   -29.4544   -28.8248     0.1401
 679   9943.6  1374.875215   -29.9668   -28.8237    -1.1180
 680   9940.8  1374.887422   -30.3791   -28.8227    -1.2531
 681   9938.1  1374.899629   -29.5785   -28.8217    -1.0439
 682   9935.3  1374.911836   -29.9264   -28.8207    -0.5737
 683   9932.6  1374.924043   -28.1462   -28.8197     0.3186
 684   9929.8  1374.936250   -27.7856   -28.8187     0.2792
 685   9927.1  1374.948457   -30.4404   -28.8177    -0.7895
 686   9924.3  1374.960664   -29.7625   -28.8167    -0.8748
 687   9921.6  1374.972871   -28.8003   -28.8157     0.2407
 688   9918.8  1374.985078   -26.9366   -28.8147     0.8153
 689   9916.1  1374.997285   -29.3240   -28.8137    -0.3142
 690   9913.3  1375.009492   -30.9267   -28.8127    -1.7851
 691   9910.6  1375.021699   -31.2139   -28.8117    -1.4443
 692   9907.8  1375.033906   -27.6693   -28.8107    -0.2615
 693   9905.1  1375.046113   -29.7363   -28.8097    -0.6760
 694   9902.3  1375.058320   -30.8009   -28.8087    -0.7344
 695   9899.6  1375.070527   -26.8342   -28.8077     0.5003
 696   9896.8  1375.082734   -28.7604   -28.8067     0.5891
 697   9894.1  1375.094941   -28.5152   -28.8057    -0.2017
 698   9891.3  1375.107148   -30.2386   -28.8047    -0.2104
 699   9888.6  1375.119355   -27.0677   -28.8037     1.0040
 700   9885.8  1375.131562   -26.8246   -28.8027     1.2420
 701   9883.1  1375.143769   -29.5259   -28.8017     0.4311
 702   9880.3  1375.155976   -27.6062   -28.8007    -0.2982
 703   9877.6  1375.168183   -31.6575   -28.7997    -0.9367
 704   9874.9  1375.180390   -28.0245   -28.7987    -0.1371
 705   9872.1  1375.192597   -28.0367   -28.7978     0.2738
 706   9869.4  1375.204804   -29.9980   -28.7968    -1.0102
 707   9866.6  1375.217011   -31.1954   -28.7958    -1.2824
 708   9863.9  1375.229219   -27.9240   -28.7948    -0.6681
 709   9861.1  1375.241426   -30.8082   -28.7938    -1.3609
 710   9858.4  1375.253633   -31.0785   -28.7928    -1.9668
 711   9855.6  1375.265840   -30.0733   -28.7919    -1.1638
 712   9852.9  1375.278047   -28.5974   -28.7909    -0.1395
 713   9850.1  1375.290254   -28.4535   -28.7899     0.4482
 714   9847.4  1375.302461   -27.8623   -28.7889     1.1834
 715   9844.6  1375.314668   -26.2438   -28.7880     1.3155
 716   9841.9  1375.326875   -29.5400   -28.7870     0.5032
 717   9839.1  1375.339082   -27.8112   -28.7860    -0.0872
 718   9836.4  1375.351289   -30.3302   -28.7850    -0.6205
 719   9833.6  1375.363496   -29.1505   -28.7841    -0.6250
 720   9830.9  1375.375703   -29.0049   -28.7831    -0.8341
 721   9828.1  1375.387910   -31.3083   -28.7821    -1.6485
 722   9825.4  1375.400117   -30.1008   -28.7812    -1.0970
 723   9822.6  1375.412324   -28.0029   -28.7802     0.3657
 724   9819.9  1375.424531   -27.5514   -28.7792     1.1108
 725   9817.1  1375.436738   -27.5683   -28.7783     1.0277
 726   9814.4  1375.448945   -28.3144   -28.7773    -0.0939
 727   9811.6  1375.461152   -31.2876   -28.7763    -1.9220
 728   9808.9  1375.473359   -31.9037   -28.7754    -2.2121
 729   9806.1  1375.485566   -28.8550   -28.7744    -0.6383
 730   9803.4  1375.497773   -28.0371   -28.7735    -0.0925
 731   9800.7  1375.509980   -30.5345   -28.7725    -1.1938
 732   9797.9  1375.522187   -30.7590   -28.7715    -0.9001
 733   9795.2  1375.534394   -26.6342   -28.7706     1.3622
 734   9792.4  1375.546601   -25.6062   -28.7696     2.6751
 735   9789.7  1375.558808   -26.5318   -28.7687     1.5703
 736   9786.9  1375.571015   -30.1239   -28.7677    -0.7486
 737   9784.2  1375.583222   -31.2857   -28.7668    -1.9035
 738   9781.4  1375.595429   -29.9856   -28.7658    -1.2772
 739   9778.7  1375.607636   -28.9153   -28.7649     0.3452
 740   9775.9  1375.619844   -25.8626   -28.7639     1.7725
 741   9773.2  1375.632051   -27.3251   -28.7630     1.0059
 742   9770.4  1375.644258   -30.5154   -28.7620    -0.5359
 743   9767.7  1375.656465   -28.8359   -28.7611    -0.7414
 744   9764.9  1375.668672   -29.8228   -28.7601    -0.8714
 745   9762.2  1375.680879   -30.0447   -28.7592    -0.4621
 746   9759.4  1375.693086   -26.9731   -28.7582     0.1409
 747   9756.7  1375.705293   -30.4785   -28.7573    -0.0243
 748   9753.9  1375.717500   -27.1964   -28.7564     0.1552
 749   9751.2  1375.729707   -29.5335   -28.7554    -0.0199
 750   9748.5  1375.741914   -28.8378   -28.7545    -0.5246
 751   9745.7  1375.754121   -29.9073   -28.7535    -1.0627
 752   9743.0  1375.766328   -30.6126   -28.7526    -1.4333
 753   9740.2  1375.778535   -29.6111   -28.7517    -1.1554
 754   9737.5  1375.790742   -29.7937   -28.7507    -0.5958
 755   9734.7  1375.802949   -28.1879   -28.7498     0.5237
 756   9732.0  1375.815156   -26.7349   -28.7489     1.6686
 757   9729.2  1375.827363   -26.6635   -28.7479     2.2873
 758   9726.5  1375.839570   -25.7807   -28.7470     1.5522
 759   9723.7  1375.851777   -30.5543   -28.7461    -0.4033
 760   9721.0  1375.863984   -29.7081   -28.7451    -0.4745
 761   9718.2  1375.876191   -26.9081   -28.7442     1.1510
 762   9715.5  1375.888398   -26.8487   -28.7433     1.2855
 763   9712.8  1375.900605   -29.2255   -28.7424     1.2527
 764   9710.0  1375.912812   -24.6589   -28.7414     1.9785
 765   9707.3  1375.925019   -28.5085   -28.7405     0.8518
 766   9704.5  1375.937226   -29.8791   -28.7396    -0.3753
 767   9701.8  1375.949433   -28.1928   -28.7387    -0.1263
 768   9699.0  1375.961640   -29.1951   -28.7378    -0.4072
 769   9696.3  1375.973847   -29.9968   -28.7368    -0.2522
 770   9693.5  1375.986054   -26.7673   -28.7359     1.0394
 771   9690.8  1375.998261   -27.2545   -28.7350     1.3552
 772   9688.0  1376.010469   -28.2429   -28.7341     1.2195
 773   9685.3  1376.022676   -26.3179   -28.7332     0.9341
 774   9682.6  1376.034883   -30.3173   -28.7323    -0.0151
 775   9679.8  1376.047090   -28.0368   -28.7313     0.1554
 776   9677.1  1376.059297   -27.9130   -28.7304     0.8847
 777   9674.3  1376.071504   -27.5201   -28.7295     0.9913
 778   9671.6  1376.083711   -27.9995   -28.7286     0.3385
 779   9668.8  1376.095918   -30.0414   -28.7277    -1.0198
 780   9666.1  1376.108125   -30.9077   -28.7268    -1.6176
 781   9663.3  1376.120332   -29.5208   -28.7259    -1.1326
 782   9660.6  1376.132539   -29.4846   -28.7250    -0.1821
 783   9657.8  1376.144746   -27.1385   -28.7241     0.9172
 784   9655.1  1376.156953   -27.4657   -28.7232     1.4929
 785   9652.4  1376.169160   -26.8513   -28.7223     1.3757
 786   9649.6  1376.181367   -28.2178   -28.7214    -0.1652
 787   9646.9  1376.193574   -32.2591   -28.7205    -1.6130
 788   9644.1  1376.205781   -28.5976   -28.7196    -0.1415
 789   9641.4  1376.217988   -25.9898   -28.7187     1.2579
 790   9638.6  1376.230195   -29.2658   -28.7178    -0.5165
 791   9635.9  1376.242402   -32.4155   -28.7169    -2.2103
 792   9633.1  1376.254609   -29.6119   -28.7160    -1.7196
 793   9630.4  1376.266816   -30.1030   -28.7151    -1.1396
 794   9627.7  1376.279023   -29.6006   -28.7142    -0.5914
 795   9624.9  1376.291230   -27.9182   -28.7133     0.0908
 796   9622.2  1376.303437   -29.0530   -28.7124     0.6127
 797   9619.4  1376.315644   -26.3750   -28.7115     0.5141
 798   9616.7  1376.327851   -30.9869   -28.7106     0.0132
 799   9613.9  1376.340058   -26.4410   -28.7097    -0.2373
 800   9611.2  1376.352265   -31.9192   -28.7089    -1.2881
 801   9608.4  1376.364472   -29.7085   -28.7080    -1.7031
 802   9605.7  1376.376679   -30.3079   -28.7071    -0.9762
 803   9603.0  1376.388886   -28.4089   -28.7062    -0.6277
 804   9600.2  1376.401094   -30.2098   -28.7053    -0.1959
 805   9597.5  1376.413301   -26.7763   -28.7044     1.2866
 806   9594.7  1376.425508   -25.9087   -28.7036     2.0285
 807   9592.0  1376.437715   -28.1066   -28.7027     1.2178
 808   9589.2  1376.449922   -27.8178   -28.7018     0.7776
 809   9586.5  1376.462129   -27.9547   -28.7009     0.4496
 810   9583.7  1376.474336   -29.2781   -28.7001    -0.1297
 811   9581.0  1376.486543   -28.8082   -28.6992     0.0456
 812   9578.3  1376.498750   -27.7197   -28.6983     0.4104
 813   9575.5  1376.510957   -28.9039   -28.6974    -0.5093
 814   9572.8  1376.523164   -31.2993   -28.6966    -0.9871
 815   9570.0  1376.535371   -27.2321   -28.6957    -0.0668
 816   9567.3  1376.547578   -29.2865   -28.6948    -0.1966
 817   9564.5  1376.559785   -29.7605   -28.6939    -0.5167
 818   9561.8  1376.571992   -28.0350   -28.6931    -0.6734
 819   9559.1  1376.584199   -31.6353   -28.6922    -1.4663
 820   9556.3  1376.596406   -29.3287   -28.6913    -0.9344
 821   9553.6  1376.608613   -28.2104   -28.6905     0.8610
 822   9550.8  1376.620820   -25.5683   -28.6896     2.5738
 823   9548.1  1376.633027   -25.1161   -28.6888     2.8435
 824   9545.3  1376.645234   -27.5803   -28.6879     1.4458
 825   9542.6  1376.657441   -28.6915   -28.6870     0.6418
 826   9539.9  1376.669648   -27.2174   -28.6862     1.1517
 827   9537.1  1376.681855   -27.0115   -28.6853     1.1782
 828   9534.4  1376.694062   -28.7881   -28.6845     0.7059
 829   9531.6  1376.706269   -27.3265   -28.6836     0.3053
 830   9528.9  1376.718476   -30.0719   -28.6827    -0.4362
 831   9526.1  1376.730683   -29.0054   -28.6819    -0.6478
 832   9523.4  1376.742890   -29.2360   -28.6810    -0.5720
 833   9520.7  1376.755097   -29.5349   -28.6802     0.5081
 834   9517.9  1376.767304   -24.3825   -28.6793     2.0718
 835   9515.2  1376.779511   -28.1303   -28.6785     1.3629
 836   9512.4  1376.791719   -28.6194   -28.6776     1.1046
 837   9509.7  1376.803926   -24.9229   -28.6768     3.3900
 838   9506.9  1376.816133   -22.6818   -28.6759     5.2924
 839   9504.2  1376.828340   -23.2477   -28.6751     5.6474
 840   9501.5  1376.840547   -22.9335   -28.6742     4.9387
 841   9498.7  1376.852754   -25.8275   -28.6734     4.6541
 842   9496.0  1376.864961   -21.4888   -28.6726     5.0233
 843   9493.2  1376.877168   -25.7920   -28.6717     4.2006
 844   9490.5  1376.889375   -24.8115   -28.6709     3.2321
 845   9487.8  1376.901582   -26.3400   -28.6700     3.7266
 846   9485.0  1376.913789   -22.2823   -28.6692     4.0345
 847   9482.3  1376.925996   -27.6344   -28.6684     3.1166
 848   9479.5  1376.938203   -24.6559   -28.6675     3.5544
 849   9476.8  1376.950410   -23.5063   -28.6667     3.7446
 850   9474.0  1376.962617   -28.0201   -28.6659     2.8481
 851   9471.3  1376.974824   -23.7245   -28.6650     3.4787
 852   9468.6  1376.987031   -25.2762   -28.6642     3.4644
 853   9465.8  1376.999238   -26.5222   -28.6634     3.4607
 854   9463.1  1377.011445   -22.4903   -28.6625     4.2302
 855   9460.3  1377.023652   -26.2264   -28.6617     4.2458
 856   9457.6  1377.035859   -22.7203   -28.6609     4.3084
 857   9454.9  1377.048066   -25.7430   -28.6600     3.9973
 858   9452.1  1377.060273   -24.4449   -28.6592     3.3000
 859   9449.4  1377.072480   -26.8041   -28.6584     3.0369
 860   9446.6  1377.084687   -24.4328   -28.6576     3.7450
 861   9443.9  1377.096894   -23.9805   -28.6567     5.1488
 862   9441.1  1377.109101   -21.6382   -28.6559     5.8416
 863   9438.4  1377.121308   -24.0002   -28.6551     4.7518
 864   9435.7  1377.133515   -25.9745   -28.6543     3.9867
 865   9432.9  1377.145722   -22.7213   -28.6535     4.6606
 866   9430.2  1377.157929   -24.5544   -28.6526     4.9653
 867   9427.4  1377.170136   -22.9191   -28.6518     4.3605
 868   9424.7  1377.182344   -26.7727   -28.6510     2.6824
 869   9422.0  1377.194551   -27.4098   -28.6502     2.7751
 870   9419.2  1377.206758   -21.9080   -28.6494     3.9671
 871   9416.5  1377.218965   -27.5032   -28.6486     3.2913
 872   9413.7  1377.231172   -24.5146   -28.6478     3.0123
 873   9411.0  1377.243379   -26.0094   -28.6470     2.7713
 874   9408.3  1377.255586   -26.9694   -28.6461     2.7070
 875   9405.5  1377.267793   -23.8082   -28.6453     3.1520
 876   9402.8  1377.280000   -27.3876   -28.6445     2.8262
 877   9400.0  1377.292207   -24.6899   -28.6437     3.5241
 878   9397.3  1377.304414   -23.7109   -28.6429     3.7863
 879   9394.6  1377.316621   -27.3147   -28.6421     2.9980
 880   9391.8  1377.328828   -24.2362   -28.6413     2.7430
 881   9389.1  1377.341035   -27.8060   -28.6405     2.1637
 882   9386.3  1377.353242   -26.0591   -28.6397     2.3932
 883   9383.6  1377.365449   -25.0617   -28.6389     3.2960
 884   9380.9  1377.377656   -25.1893   -28.6381     2.2258
 885   9378.1  1377.389863   -30.2091   -28.6373     1.2383
 886   9375.4  1377.402070   -23.9887   -28.6365     3.1758
 887   9372.6  1377.414277   -23.6563   -28.6357     4.7474
 888   9369.9  1377.426484   -24.2518   -28.6349     3.4265
 889   9367.2  1377.438691   -28.6737   -28.6341     2.0013
 890   9364.4  1377.450898   -24.9321   -28.6333     3.0497
 891   9361.7  1377.463105   -23.7968   -28.6325     3.9903
 892   9358.9  1377.475312   -26.0434   -28.6317     3.2551
 893   9356.2  1377.487519   -25.6232   -28.6310     2.9242
 894   9353.5  1377.499726   -25.5373   -28.6302     3.2353
 895   9350.7  1377.511933   -24.8819   -28.6294     3.8381
 896   9348.0  1377.524140   -23.8641   -28.6286     4.1629
 897   9345.2  1377.536347   -25.2528   -28.6278     3.6495
 898   9342.5  1377.548554   -25.5435   -28.6270     2.7025
 899   9339.8  1377.560761   -27.3584   -28.6262     1.1282
 900   9337.0  1377.572969   -29.7320   -28.6255     0.3709
 901   9334.3  1377.585176   -26.1961   -28.6247     1.2134
 902   9331.5  1377.597383   -27.5210   -28.6239     1.8859
 903   9328.8  1377.609590   -25.7137   -28.6231     2.8381
 904   9326.1  1377.621797   -24.1917   -28.6223     3.2792
 905   9323.3  1377.634004   -27.2755   -28.6216     2.3872
 906   9320.6  1377.646211   -26.1947   -28.6208     2.1112
 907   9317.8  1377.658418   -26.3732   -28.6200     2.1842
 908   9315.1  1377.670625   -26.8020   -28.6192     1.9920
 909   9312.4  1377.682832   -26.5314   -28.6185     3.1009
 910   9309.6  1377.695039   -22.2055   -28.6177     4.1843
 911   9306.9  1377.707246   -26.7910   -28.6169     3.4616
 912   9304.2  1377.719453   -24.8337   -28.6161     4.2408
 913   9301.4  1377.731660   -21.0431   -28.6154     5.2285
 914   9298.7  1377.743867   -26.6277   -28.6146     3.6214
 915   9295.9  1377.756074   -25.6745   -28.6138     3.9922
 916   9293.2  1377.768281   -20.5100   -28.6131     6.6797
 917   9290.5  1377.780488   -21.0392   -28.6123     6.7928
 918   9287.7  1377.792695   -24.6896   -28.6116     4.6251
 919   9285.0  1377.804902   -25.5277   -28.6108     3.1172
 920   9282.2  1377.817109   -26.2295   -28.6100     2.4017
 921   9279.5  1377.829316   -26.8466   -28.6093     2.8738
 922   9276.8  1377.841523   -23.0190   -28.6085     4.5373
 923   9274.0  1377.853730   -23.4003   -28.6077     5.1183
 924   9271.3  1377.865937   -24.1384   -28.6070     4.3451
 925   9268.6  1377.878144   -25.3704   -28.6062     3.3526
 926   9265.8  1377.890351   -26.1353   -28.6055     3.1918
 927   9263.1  1377.902558   -24.0138   -28.6047     4.0345
 928   9260.3  1377.914765   -24.1180   -28.6040     3.9510
 929   9257.6  1377.926972   -26.3620   -28.6032     3.0425
 930   9254.9  1377.939179   -25.4008   -28.6025     2.4129
 931   9252.1  1377.951386   -27.5947   -28.6017     0.4766
 932   9249.4  1377.963594   -31.9102   -28.6010    -1.4836
 933   9246.6  1377.975801   -28.9230   -28.6002    -0.6646
 934   9243.9  1377.988008   -27.3032   -28.5995     0.5345
 935   9241.2  1378.000215   -28.7305   -28.5987     0.5695
 936   9238.4  1378.012422   -27.3528   -28.5980     1.4164
 937   9235.7  1378.024629   -25.2901   -28.5972     2.3609
 938   9233.0  1378.036836   -27.0124   -28.5965     1.8387
 939   9230.2  1378.049043   -27.7163   -28.5957     0.7911
 940   9227.5  1378.061250   -28.7735   -28.5950    -0.0978
 941   9224.7  1378.073457   -29.5080   -28.5943    -0.3291
 942   9222.0  1378.085664   -27.9039   -28.5935    -0.0722
 943   9219.3  1378.097871   -29.3471   -28.5928    -0.5468
 944   9216.5  1378.110078   -29.9601   -28.5921    -0.7395
 945   9213.8  1378.122285   -28.0586   -28.5913     0.4486
 946   9211.1  1378.134492   -26.4935   -28.5906     0.9912
 947   9208.3  1378.146699   -29.3519   -28.5899     0.9579
 948   9205.6  1378.158906   -25.3303   -28.5891     1.3075
 949   9202.9  1378.171113   -29.1138   -28.5884     0.1867
 950   9200.1  1378.183320   -30.0488   -28.5877    -0.9332
 951   9197.4  1378.195527   -28.8721   -28.5869    -1.5207
 952   9194.6  1378.207734   -32.6376   -28.5862    -2.3921
 953   9191.9  1378.219941   -29.7661   -28.5855    -1.4714
 954   9189.2  1378.232148   -28.0578   -28.5847     0.0530
 955   9186.4  1378.244355   -28.2453   -28.5840     0.2457
 956   9183.7  1378.256562   -28.8051   -28.5833     0.0030
 957   9181.0  1378.268769   -28.4658   -28.5826    -0.4902
 958   9178.2  1378.280976   -30.5542   -28.5818    -1.0554
 959   9175.5  1378.293183   -28.9750   -28.5811    -0.8394
 960   9172.7  1378.305390   -29.1779   -28.5804    -0.4976
 961   9170.0  1378.317597   -28.9811   -28.5797    -0.4755
 962   9167.3  1378.329804   -29.0805   -28.5790    -1.0796
 963   9164.5  1378.342011   -31.4921   -28.5783    -0.8833
 964   9161.8  1378.354219   -25.7817   -28.5775     0.9158
 965   9159.1  1378.366426   -27.5914   -28.5768     0.9711
 966   9156.3  1378.378633   -29.4585   -28.5761     0.0346
 967   9153.6  1378.390840   -27.6577   -28.5754     0.0329
 968   9150.9  1378.403047   -29.3961   -28.5747    -0.3254
 969   9148.1  1378.415254   -29.1504   -28.5740    -0.6542
 970   9145.4  1378.427461   -29.2160   -28.5733     0.2430
 971   9142.7  1378.439668   -25.7387   -28.5726     1.1881
 972   9139.9  1378.451875   -28.8444   -28.5718     0.5296
 973   9137.2  1378.464082   -28.7414   -28.5711    -0.0406
 974   9134.4  1378.476289   -28.1197   -28.5704     0.4558
 975   9131.7  1378.488496   -27.4777   -28.5697     0.9496
 976   9129.0  1378.500703   -27.4055   -28.5690     0.6269
 977   9126.2  1378.512910   -29.4797   -28.5683    -0.3225
 978   9123.5  1378.525117   -29.1984   -28.5676    -1.1604
 979   9120.8  1378.537324   -31.0354   -28.5669    -1.4296
 980   9118.0  1378.549531   -28.7167   -28.5662    -0.0554
 981   9115.3  1378.561738   -26.0179   -28.5655     1.5512
 982   9112.6  1378.573945   -27.3050   -28.5648     1.2548
 983   9109.8  1378.586152   -28.6121   -28.5641     0.7694
 984   9107.1  1378.598359   -26.6498   -28.5634     0.8089
 985   9104.4  1378.610566   -29.1065   -28.5627     0.3389
 986   9101.6  1378.622773   -28.0325   -28.5620     1.2670
 987   9098.9  1378.634980   -24.0084   -28.5613     3.0108
 988   9096.1  1378.647187   -26.1526   -28.5607     1.6216
 989   9093.4  1378.659394   -31.4426   -28.5600    -0.5932
 990   9090.7  1378.671601   -27.5746   -28.5593    -1.0858
 991   9087.9  1378.683808   -31.9885   -28.5586    -2.6849
 992   9085.2  1378.696015   -33.4223   -28.5579    -3.1682
 993   9082.5  1378.708222   -28.0714   -28.5572    -0.7725
 994   9079.7  1378.720429   -27.7538   -28.5565     0.5491
 995   9077.0  1378.732636   -28.4507   -28.5558     0.1362
 996   9074.3  1378.744844   -29.0234   -28.5552     0.6452
 997   9071.5  1378.757051   -25.1425   -28.5545     2.0574
 998   9068.8  1378.769258   -26.6799   -28.5538     1.2811
 999   9066.1  1378.781465   -30.5884   -28.5531    -0.7217
1000   9063.3  1378.793672   -29.2426   -28.5524     0.2242
1001   9060.6  1378.805879   -24.2394   -28.5518     1.6426
1002   9057.9  1378.818086   -29.9154   -28.5511     0.3866
1003   9055.1  1378.830293   -28.5880   -28.5504     0.2759
1004   9052.4  1378.842500   -26.0067   -28.5497     0.9206
1005   9049.7  1378.854707   -29.9151   -28.5491    -0.8587
1006   9046.9  1378.866914   -31.7942   -28.5484    -2.1838
1007   9044.2  1378.879121   -29.4251   -28.5477    -0.5850
1008   9041.5  1378.891328   -25.8866   -28.5470     1.0470
1009   9038.7  1378.903535   -28.8018   -28.5464     0.7319
1010   9036.0  1378.915742   -27.7677   -28.5457     0.5246
1011   9033.3  1378.927949   -27.7473   -28.5450     0.6841
1012   9030.5  1378.940156   -28.1814   -28.5444     0.9258
1013   9027.8  1378.952363   -26.3642   -28.5437     0.6893
1014   9025.1  1378.964570   -30.5078   -28.5430    -0.9935
1015   9022.3  1378.976777   -30.7665   -28.5424    -2.0708
1016   9019.6  1378.988984   -30.4121   -28.5417    -1.5041
1017   9016.9  1379.001191   -28.5928   -28.5411    -0.9713
1018   9014.1  1379.013398   -30.4519   -28.5404    -0.5388
1019   9011.4  1379.025605   -26.8204   -28.5397     0.2968
1020   9008.7  1379.037812   -28.8792   -28.5391    -0.5579
1021   9005.9  1379.050019   -31.8090   -28.5384    -1.3014
1022   9003.2  1379.062226   -26.8623   -28.5378    -0.7030
1023   9000.5  1379.074433   -31.4294   -28.5371    -0.7502
1024   8997.7  1379.086640   -27.4281   -28.5365     0.6362
1025   8995.0  1379.098847   -25.3153   -28.5358     2.4847
1026   8992.3  1379.111054   -26.1455   -28.5352     2.5087
1027   8989.5  1379.123261   -26.4997   -28.5345     1.6077
1028   8986.8  1379.135469   -28.5624   -28.5339     0.2241
1029   8984.1  1379.147676   -29.6147   -28.5332    -1.0169
1030   8981.3  1379.159883   -30.4087   -28.5326    -1.4661
1031   8978.6  1379.172090   -29.5626   -28.5319    -2.1379
1032   8975.9  1379.184297   -33.1452   -28.5313    -2.5119
1033   8973.1  1379.196504   -28.3196   -28.5306    -1.0263
1034   8970.4  1379.208711   -28.4433   -28.5300     0.1931
1035   8967.7  1379.220918   -28.1416   -28.5293    -0.5463
1036   8964.9  1379.233125   -31.5761   -28.5287    -2.1417
1037   8962.2  1379.245332   -31.3877   -28.5280    -2.4379
1038   8959.5  1379.257539   -29.5123   -28.5274    -1.8919
1039   8956.7  1379.269746   -31.2647   -28.5268    -2.3150
1040   8954.0  1379.281953   -31.3252   -28.5261    -3.2582
1041   8951.3  1379.294160   -33.2221   -28.5255    -2.4276
1042   8948.5  1379.306367   -26.0431   -28.5249    -0.2947
1043   8945.8  1379.318574   -29.9699   -28.5242     0.7021
1044   8943.1  1379.330781   -25.3056   -28.5236     1.8952
1045   8940.3  1379.342988   -25.9326   -28.5230     2.1235
1046   8937.6  1379.355195   -28.4269   -28.5223     0.6470
1047   8934.9  1379.367402   -28.7150   -28.5217     0.4844
1048   8932.1  1379.379609   -26.2925   -28.5211     1.1026
1049   8929.4  1379.391816   -28.3737   -28.5204     0.7174
1050   8926.7  1379.404023   -28.1723   -28.5198    -0.2122
1051   8923.9  1379.416230   -30.2099   -28.5192    -0.7454
1052   8921.2  1379.428437   -28.4665   -28.5186    -0.4172
1053   8918.5  1379.440644   -28.6003   -28.5179    -0.2203
1054   8915.7  1379.452851   -29.2858   -28.5173    -0.9972
1055   8913.0  1379.465058   -30.8863   -28.5167    -1.6717
1056   8910.3  1379.477265   -29.6953   -28.5161    -1.5591
1057   8907.5  1379.489472   -30.0239   -28.5155    -1.2947
1058   8904.8  1379.501679   -29.4976   -28.5148    -0.3218
1059   8902.1  1379.513886   -26.3275   -28.5142     0.9556
1060   8899.4  1379.526094   -28.0821   -28.5136     0.3650
1061   8896.6  1379.538301   -30.1028   -28.5130    -0.0717
1062   8893.9  1379.550508   -26.0512   -28.5124     1.0411
1063   8891.2  1379.562715   -27.6797   -28.5118     1.0137
1064   8888.4  1379.574922   -28.5817   -28.5111    -0.3242
1065   8885.7  1379.587129   -30.4981   -28.5105    -1.0357
1066   8883.0  1379.599336   -28.6067   -28.5099    -0.6299
1067   8880.2  1379.611543   -28.8478   -28.5093     0.3430
1068   8877.5  1379.623750   -26.3630   -28.5087     1.2027
1069   8874.8  1379.635957   -27.6503   -28.5081     1.4742
1070   8872.0  1379.648164   -26.4720   -28.5075     2.4289
1071   8869.3  1379.660371   -23.7202   -28.5069     2.4649
1072   8866.6  1379.672578   -30.2555   -28.5063     0.6317
1073   8863.8  1379.684785   -27.2671   -28.5057     0.7759
1074   8861.1  1379.696992   -26.1292   -28.5051     1.2162
1075   8858.4  1379.709199   -29.6298   -28.5045     0.6677
1076   8855.7  1379.721406   -25.9583   -28.5039     0.8709
1077   8852.9  1379.733613   -28.9857   -28.5033     1.0656
1078   8850.2  1379.745820   -25.8211   -28.5027     1.4417
1079   8847.5  1379.758027   -27.6162   -28.5021     1.9987
1080   8844.7  1379.770234   -24.9600   -28.5015     2.2523
1081   8842.0  1379.782441   -27.4604   -28.5009     2.3887
1082   8839.3  1379.794648   -24.5680   -28.5003     1.4071
1083   8836.5  1379.806855   -31.7762   -28.4997    -0.7948
1084   8833.8  1379.819062   -29.0575   -28.4991    -1.1896
1085   8831.1  1379.831269   -28.8635   -28.4985    -0.0071
1086   8828.4  1379.843476   -27.2379   -28.4979     0.1568
1087   8825.6  1379.855683   -30.0251   -28.4973    -0.5632
1088   8822.9  1379.867890   -28.9542   -28.4967    -0.3934
1089   8820.2  1379.880097   -27.6269   -28.4961     0.4909
1090   8817.4  1379.892304   -27.8132   -28.4956     0.1237
1091   8814.7  1379.904511   -30.2343   -28.4950    -0.3590
1092   8812.0  1379.916719   -27.1341   -28.4944     0.7022
1093   8809.2  1379.928926   -26.6665   -28.4938     1.1694
1094   8806.5  1379.941133   -28.8303   -28.4932     0.4575
1095   8803.8  1379.953340   -27.8159   -28.4926    -0.3399
1096   8801.1  1379.965547   -30.8681   -28.4921    -1.0817
1097   8798.3  1379.977754   -28.7430   -28.4915    -1.0846
1098   8795.6  1379.989961   -29.9503   -28.4909    -0.9724
1099   8792.9  1380.002168   -29.2096   -28.4903    -0.6806
1100   8790.1  1380.014375   -28.3145   -28.4898    -0.2078
1101   8787.4  1380.026582   -28.9517   -28.4892    -0.4874
1102   8784.7  1380.038789   -29.6885   -28.4886    -0.8542
1103   8781.9  1380.050996   -29.0426   -28.4880    -1.2821
1104   8779.2  1380.063203   -31.3068   -28.4875    -1.9189
1105   8776.5  1380.075410   -29.9693   -28.4869    -1.9055
1106   8773.8  1380.087617   -30.3241   -28.4863    -1.4406
1107   8771.0  1380.099824   -29.0903   -28.4858    -1.3260
1108   8768.3  1380.112031   -30.7422   -28.4852    -1.8068
1109   8765.6  1380.124238   -30.5933   -28.4846    -2.4276
1110   8762.8  1380.136445   -31.7202   -28.4841    -1.2782
1111   8760.1  1380.148652   -25.0151   -28.4835     0.6195
1112   8757.4  1380.160859   -29.7053   -28.4829    -0.3207
1113   8754.7  1380.173066   -30.7886   -28.4824    -1.3888
1114   8751.9  1380.185273   -28.2019   -28.4818    -0.2891
1115   8749.2  1380.197480   -27.8913   -28.4812    -0.0925
1116   8746.5  1380.209687   -30.3103   -28.4807    -0.7974
1117   8743.7  1380.221894   -28.6006   -28.4801    -1.2525
1118   8741.0  1380.234101   -31.4191   -28.4796    -1.5646
1119   8738.3  1380.246308   -28.7379   -28.4790    -1.5600
1120   8735.5  1380.258515   -31.2612   -28.4785    -1.3915
1121   8732.8  1380.270722   -28.2196   -28.4779    -0.6866
1122   8730.1  1380.282929   -28.9577   -28.4773    -0.1943
1123   8727.4  1380.295136   -28.5517   -28.4768     0.0344
1124   8724.6  1380.307344   -27.7083   -28.4762     0.2262
1125   8721.9  1380.319551   -29.0317   -28.4757     0.5992
1126   8719.2  1380.331758   -25.7344   -28.4751     1.9896
1127   8716.5  1380.343965   -25.4417   -28.4746     2.4562
1128   8713.7  1380.356172   -27.4559   -28.4741     1.7365
1129   8711.0  1380.368379   -26.5967   -28.4735     0.4973
1130   8708.3  1380.380586   -31.2554   -28.4730    -1.0132
1131   8705.5  1380.392793   -28.8370   -28.4724    -1.0319
1132   8702.8  1380.405000   -29.0876   -28.4719    -0.1797
1133   8700.1  1380.417207   -27.5941   -28.4713     0.3716
1134   8697.4  1380.429414   -28.1232   -28.4708    -0.0193
1135   8694.6  1380.441621   -30.1199   -28.4703    -0.5006
1136   8691.9  1380.453828   -27.5203   -28.4697    -0.3525
1137   8689.2  1380.466035   -30.1283   -28.4692    -0.4049
1138   8686.4  1380.478242   -27.7196   -28.4686    -0.4349
1139   8683.7  1380.490449   -30.0465   -28.4681    -0.2929
1140   8681.0  1380.502656   -27.2316   -28.4676    -0.2057
1141   8678.3  1380.514863   -30.1835   -28.4670    -1.3027
1142   8675.5  1380.527070   -31.4803   -28.4665    -2.5977
1143   8672.8  1380.539277   -31.1124   -28.4660    -2.1563
1144   8670.1  1380.551484   -28.7838   -28.4654    -0.8633
1145   8667.3  1380.563691   -28.6350   -28.4649     0.2634
1146   8664.6  1380.575898   -26.7523   -28.4644     0.6511
1147   8661.9  1380.588105   -29.1136   -28.4639     0.0951
1148   8659.2  1380.600312   -28.4953   -28.4633    -0.2132
1149   8656.4  1380.612519   -28.6017   -28.4628    -1.1334
1150   8653.7  1380.624726   -32.6863   -28.4623    -2.2246
1151   8651.0  1380.636933   -28.7734   -28.4618    -1.1446
1152   8648.3  1380.649140   -28.1922   -28.4612    -0.1505
1153   8645.5  1380.661347   -29.2890   -28.4607    -0.0785
1154   8642.8  1380.673554   -27.3866   -28.4602     0.3524
1155   8640.1  1380.685761   -28.3688   -28.4597     1.1615
1156   8637.4  1380.697969   -25.0686   -28.4591     2.1452
1157   8634.6  1380.710176   -26.7500   -28.4586     1.7536
1158   8631.9  1380.722383   -28.2513   -28.4581     1.1104
1159   8629.2  1380.734590   -26.1380   -28.4576     0.4115
1160   8626.4  1380.746797   -31.6572   -28.4571    -1.0304
1161   8623.7  1380.759004   -28.4977   -28.4566    -0.4326
1162   8621.0  1380.771211   -26.9041   -28.4561    -0.1519
1163   8618.3  1380.783418   -32.1258   -28.4555    -2.2254
1164   8615.5  1380.795625   -31.5682   -28.4550    -2.7410
1165   8612.8  1380.807832   -29.5220   -28.4545    -0.3329
1166   8610.1  1380.820039   -24.5377   -28.4540     1.1311
1167   8607.4  1380.832246   -30.6944   -28.4535     0.1030
1168   8604.6  1380.844453   -27.4757   -28.4530    -0.0454
1169   8601.9  1380.856660   -28.3479   -28.4525    -0.0964
1170   8599.2  1380.868867   -30.0242   -28.4520    -0.4917
1171   8596.5  1380.881074   -27.3784   -28.4515     1.0350
1172   8593.7  1380.893281   -24.8851   -28.4510     2.7523
1173   8591.0  1380.905488   -25.6462   -28.4505     1.4295
1174   8588.3  1380.917695   -31.9067   -28.4500    -1.2776
1175   8585.5  1380.929902   -29.4509   -28.4495    -1.7256
1176   8582.8  1380.942109   -29.8919   -28.4490    -1.0414
1177   8580.1  1380.954316   -28.7270   -28.4485    -0.5122
1178   8577.4  1380.966523   -28.4967   -28.4480     0.8660
1179   8574.6  1380.978730   -24.6077   -28.4475     1.9757
1180   8571.9  1380.990937   -28.1751   -28.4470     1.7332
1181   8569.2  1381.003144   -25.8974   -28.4465     1.6910
1182   8566.5  1381.015351   -27.0522   -28.4460     1.2060
1183   8563.7  1381.027558   -28.9581   -28.4455    -0.3163
1184   8561.0  1381.039765   -30.0791   -28.4450     0.0234
1185   8558.3  1381.051972   -24.5703   -28.4446     1.2052
1186   8555.6  1381.064179   -29.7377   -28.4441     0.9705
1187   8552.8  1381.076386   -25.8485   -28.4436     0.7281
1188   8550.1  1381.088594   -29.4271   -28.4431    -0.9933
1189   8547.4  1381.100801   -33.0430   -28.4426    -1.5597
1190   8544.7  1381.113008   -24.4961   -28.4421     0.1443
1191   8541.9  1381.125215   -31.1560   -28.4416     0.5334
1192   8539.2  1381.137422   -24.8248   -28.4412     1.9235
1193   8536.5  1381.149629   -25.2650   -28.4407     2.8178
1194   8533.8  1381.161836   -27.1367   -28.4402     1.7796
1195   8531.0  1381.174043   -27.1041   -28.4397     0.8702
1196   8528.3  1381.186250   -28.9331   -28.4393    -0.4599
1197   8525.6  1381.198457   -30.6262   -28.4388    -1.4512
1198   8522.9  1381.210664   -29.3743   -28.4383    -0.4001
1199   8520.1  1381.222871   -25.9787   -28.4378     0.3469
1200   8517.4  1381.235078   -31.0318   -28.4374    -0.7941
1201   8514.7  1381.247285   -28.8836   -28.4369    -1.0345
1202   8512.0  1381.259492   -29.0863   -28.4364    -0.3041
1203   8509.2  1381.271699   -27.9056   -28.4359    -0.1272
1204   8506.5  1381.283906   -29.3551   -28.4355    -0.5317
1205   8503.8  1381.296113   -29.2527   -28.4350    -0.3831
1206   8501.1  1381.308320   -27.4120   -28.4345     0.1994
1207   8498.3  1381.320527   -28.8637   -28.4341    -0.1650
1208   8495.6  1381.332734   -29.2568   -28.4336    -0.3216
1209   8492.9  1381.344941   -27.6436   -28.4331    -0.5839
1210   8490.2  1381.357148   -31.5241   -28.4327    -1.5027
1211   8487.4  1381.369355   -29.0498   -28.4322    -1.7254
1212   8484.7  1381.381562   -31.0068   -28.4318    -1.1520
1213   8482.0  1381.393769   -27.2717   -28.4313     0.2192
1214   8479.3  1381.405976   -27.2982   -28.4308     1.0527
1215   8476.5  1381.418183   -27.6443   -28.4304     1.0733
1216   8473.8  1381.430390   -26.8413   -28.4299     0.2852
1217   8471.1  1381.442597   -31.2521   -28.4295    -1.4438
1218   8468.4  1381.454804   -30.1477   -28.4290    -1.4623
1219   8465.7  1381.467011   -28.0179   -28.4286    -0.5406
1220   8462.9  1381.479219   -29.6932   -28.4281     0.0769
1221   8460.2  1381.491426   -26.0003   -28.4276     0.6731
1222   8457.5  1381.503633   -29.3244   -28.4272     0.1251
1223   8454.8  1381.515840   -28.5591   -28.4267    -0.9765
1224   8452.0  1381.528047   -31.1703   -28.4263    -0.9286
1225   8449.3  1381.540254   -26.5198   -28.4259     0.6803
1226   8446.6  1381.552461   -26.7724   -28.4254     1.1555
1227   8443.9  1381.564668   -29.0152   -28.4250     0.6850
1228   8441.1  1381.576875   -26.1572   -28.4245     0.5819
1229   8438.4  1381.589082   -30.0410   -28.4241    -0.0628
1230   8435.7  1381.601289   -27.7083   -28.4236    -0.2650
1231   8433.0  1381.613496   -29.2970   -28.4232    -0.0388
1232   8430.2  1381.625703   -27.5456   -28.4227     0.7965
1233   8427.5  1381.637910   -26.1168   -28.4223     1.6326
1234   8424.8  1381.650117   -27.3797   -28.4219     1.4669
1235   8422.1  1381.662324   -26.9436   -28.4214     0.9125
1236   8419.4  1381.674531   -28.7688   -28.4210     0.6424
1237   8416.6  1381.686738   -26.6331   -28.4206     0.9613
1238   8413.9  1381.698945   -27.8020   -28.4201     0.7726
1239   8411.2  1381.711152   -28.3529   -28.4197    -0.1744
1240   8408.5  1381.723359   -29.8686   -28.4193    -0.2061
1241   8405.7  1381.735566   -26.4112   -28.4188    -0.0182
1242   8403.0  1381.747773   -31.0571   -28.4184    -0.5997
1243   8400.3  1381.759980   -27.5470   -28.4180    -1.2899
1244   8397.6  1381.772187   -32.6802   -28.4175    -1.6035
1245   8394.8  1381.784394   -27.1766   -28.4171    -0.4774
1246   8392.1  1381.796601   -28.5446   -28.4167     0.5785
1247   8389.4  1381.808808   -27.0868   -28.4163     0.5569
1248   8386.7  1381.821015   -28.7192   -28.4158     0.5748
1249   8384.0  1381.833222   -26.8390   -28.4154     0.7010
1250   8381.2  1381.845429   -28.4603   -28.4150     0.1372
1251   8378.5  1381.857636   -29.3516   -28.4146    -0.9430
1252   8375.8  1381.869844   -30.2667   -28.4141    -0.7807
1253   8373.1  1381.882051   -26.8944   -28.4137    -0.1868
1254   8370.3  1381.894258   -30.3469   -28.4133    -0.5480
1255   8367.6  1381.906465   -28.2573   -28.4129    -0.7904
1256   8364.9  1381.918672   -29.9520   -28.4125    -1.1524
1257   8362.2  1381.930879   -30.0985   -28.4121    -1.4912
1258   8359.5  1381.943086   -29.4641   -28.4116    -0.6339
1259   8356.7  1381.955293   -27.1554   -28.4112     0.0182
1260   8354.0  1381.967500   -29.7973   -28.4108    -0.5787
1261   8351.3  1381.979707   -29.2082   -28.4104    -0.9575
1262   8348.6  1381.991914   -29.2578   -28.4100    -0.9659
1263   8345.8  1382.004121   -29.7798   -28.4096    -0.4951
1264   8343.1  1382.016328   -26.8016   -28.4092     0.6450
1265   8340.4  1382.028535   -27.6740   -28.4088     0.2167
1266   8337.7  1382.040742   -30.6188   -28.4084    -1.7983
1267   8335.0  1382.052949   -31.9152   -28.4080    -2.6007
1268   8332.2  1382.065156   -29.5853   -28.4076    -1.5201
1269   8329.5  1382.077363   -28.6251   -28.4072    -0.8825
1270   8326.8  1382.089570   -30.3231   -28.4068    -1.7368
1271   8324.1  1382.101777   -31.3027   -28.4064    -1.6972
1272   8321.4  1382.113984   -27.4856   -28.4060    -1.1891
1273   8318.6  1382.126191   -32.1062   -28.4056    -2.2869
1274   8315.9  1382.138398   -31.0719   -28.4052    -1.9142
1275   8313.2  1382.150605   -27.0276   -28.4048     0.5502
1276   8310.5  1382.162812   -26.2910   -28.4044     2.2636
1277   8307.7  1382.175019   -24.9535   -28.4040     1.6360
1278   8305.0  1382.187226   -30.8740   -28.4036    -0.5110
1279   8302.3  1382.199433   -28.9569   -28.4032    -1.2063
1280   8299.6  1382.211640   -29.6502   -28.4028    -0.1241
1281   8296.9  1382.223847   -25.8502   -28.4024     0.6774
1282   8294.1  1382.236054   -29.5495   -28.4020    -0.1032
1283   8291.4  1382.248261   -29.0717   -28.4016    -1.3423
1284   8288.7  1382.260469   -31.2830   -28.4012    -1.5822
1285   8286.0  1382.272676   -28.2961   -28.4008    -0.9377
1286   8283.3  1382.284883   -29.4791   -28.4005    -1.0576
1287   8280.5  1382.297090   -30.5778   -28.4001    -1.2741
1288   8277.8  1382.309297   -28.0619   -28.3997     0.7613
1289   8275.1  1382.321504   -23.8518   -28.3993     2.2160
1290   8272.4  1382.333711   -28.9675   -28.3989     0.8438
1291   8269.7  1382.345918   -28.4336   -28.3985     0.0415
1292   8266.9  1382.358125   -27.5935   -28.3982     0.5875
1293   8264.2  1382.370332   -27.6220   -28.3978     1.1558
1294   8261.5  1382.382539   -26.1302   -28.3974     2.2094
1295   8258.8  1382.394746   -24.8697   -28.3970     3.0580
1296   8256.1  1382.406953   -25.4864   -28.3967     2.1007
1297   8253.3  1382.419160   -29.3413   -28.3963     0.6707
1298   8250.6  1382.431367   -26.7331   -28.3959     0.7161
1299   8247.9  1382.443574   -27.9117   -28.3955     0.4795
1300   8245.2  1382.455781   -29.1076   -28.3952    -0.1403
1301   8242.5  1382.467988   -28.0150   -28.3948     0.6468
1302   8239.7  1382.480195   -25.8543   -28.3944     1.0124
1303   8237.0  1382.492402   -29.8044   -28.3941     0.5162
1304   8234.3  1382.504609   -26.0486   -28.3937     0.7497
1305   8231.6  1382.516816   -28.6745   -28.3933     0.8038
1306   8228.9  1382.529023   -26.9605   -28.3930     0.6559
1307   8226.1  1382.541230   -28.3528   -28.3926    -0.0281
1308   8223.4  1382.553437   -30.0168   -28.3922    -0.9774
1309   8220.7  1382.565644   -29.0923   -28.3919    -0.9268
1310   8218.0  1382.577851   -29.0735   -28.3915    -1.0458
1311   8215.3  1382.590058   -30.5101   -28.3912    -1.3878
1312   8212.5  1382.602265   -29.0221   -28.3908    -1.0800
1313   8209.8  1382.614472   -29.3291   -28.3904    -1.4018
1314   8207.1  1382.626679   -31.4885   -28.3901    -1.9393
1315   8204.4  1382.638886   -29.0114   -28.3897    -1.0648
1316   8201.7  1382.651094   -28.3068   -28.3894    -0.4432
1317   8198.9  1382.663301   -29.7055   -28.3890    -1.3948
1318   8196.2  1382.675508   -31.4173   -28.3887    -2.0629
1319   8193.5  1382.687715   -29.2661   -28.3883    -1.3898
1320   8190.8  1382.699922   -29.1628   -28.3880    -0.6692
1321   8188.1  1382.712129   -28.6369   -28.3876    -1.0835
1322   8185.4  1382.724336   -31.4478   -28.3873    -1.3812
1323   8182.6  1382.736543   -27.5414   -28.3869    -0.8500
1324   8179.9  1382.748750   -30.4172   -28.3866    -1.1154
1325   8177.2  1382.760957   -29.6319   -28.3862    -1.5326
1326   8174.5  1382.773164   -29.9944   -28.3859    -1.1608
1327   8171.8  1382.785371   -28.5658   -28.3855    -1.1283
1328   8169.0  1382.797578   -30.9295   -28.3852    -0.8374
1329   8166.3  1382.809785   -26.4657   -28.3848     0.5428
1330   8163.6  1382.821992   -27.5071   -28.3845     0.1554
1331   8160.9  1382.834199   -31.4365   -28.3842    -1.0543
1332   8158.2  1382.846406   -27.3737   -28.3838    -0.3172
1333   8155.4  1382.858613   -28.6204   -28.3835     0.7208
1334   8152.7  1382.870820   -26.0363   -28.3831     1.8538
1335   8150.0  1382.883027   -25.4246   -28.3828     1.9292
1336   8147.3  1382.895234   -28.9289   -28.3825     0.5450
1337   8144.6  1382.907441   -28.0677   -28.3821     0.0749
1338   8141.9  1382.919648   -28.1648   -28.3818     0.2613
1339   8139.1  1382.931855   -28.0847   -28.3815    -0.2862
1340   8136.4  1382.944062   -30.3366   -28.3811    -1.2554
1341   8133.7  1382.956269   -29.7883   -28.3808    -0.7431
1342   8131.0  1382.968476   -26.5822   -28.3805     0.1057
1343   8128.3  1382.980683   -30.1463   -28.3802    -0.1125
1344   8125.5  1382.992890   -27.0959   -28.3798    -0.0115
1345   8122.8  1383.005097   -29.2273   -28.3795     0.0918
1346   8120.1  1383.017304   -27.6003   -28.3792    -0.4319
1347   8117.4  1383.029511   -30.8162   -28.3789    -1.3316
1348   8114.7  1383.041719   -29.6088   -28.3785    -1.4408
1349   8112.0  1383.053926   -29.2433   -28.3782    -0.5276
1350   8109.2  1383.066133   -27.5280   -28.3779     0.9599
1351   8106.5  1383.078340   -25.3726   -28.3776     2.1592
1352   8103.8  1383.090547   -26.6005   -28.3773     0.7356
1353   8101.1  1383.102754   -31.9931   -28.3769    -1.3338
1354   8098.4  1383.114961   -28.2565   -28.3766    -1.1604
1355   8095.7  1383.127168   -29.6419   -28.3763    -0.1365
1356   8092.9  1383.139375   -26.5110   -28.3760     0.9757
1357   8090.2  1383.151582   -26.9372   -28.3757     1.0766
1358   8087.5  1383.163789   -28.8107   -28.3754    -0.6576
1359   8084.8  1383.175996   -31.5730   -28.3751    -1.8868
1360   8082.1  1383.188203   -29.0906   -28.3747    -1.2584
1361   8079.3  1383.200410   -28.7783   -28.3744    -0.1321
1362   8076.6  1383.212617   -27.3789   -28.3741     0.1125
1363   8073.9  1383.224824   -29.5105   -28.3738     0.1750
1364   8071.2  1383.237031   -26.3952   -28.3735     1.2775
1365   8068.5  1383.249238   -26.0832   -28.3732     0.9675
1366   8065.8  1383.261445   -31.0611   -28.3729    -0.3960
1367   8063.0  1383.273652   -26.8700   -28.3726     0.3309
1368   8060.3  1383.285859   -27.3658   -28.3723     0.4896
1369   8057.6  1383.298066   -29.9291   -28.3720    -0.3318
1370   8054.9  1383.310273   -27.5910   -28.3717    -0.1475
1371   8052.2  1383.322480   -28.9658   -28.3714     0.0982
1372   8049.5  1383.334687   -27.5702   -28.3711    -0.4823
1373   8046.7  1383.346894   -31.3073   -28.3708    -0.8716
1374   8044.0  1383.359101   -26.7850   -28.3705     0.5297
1375   8041.3  1383.371308   -26.4860   -28.3702     1.3857
1376   8038.6  1383.383515   -28.1809   -28.3699     0.8522
1377   8035.9  1383.395722   -27.2229   -28.3696     0.0424
1378   8033.2  1383.407929   -30.6820   -28.3693     0.2001
1379   8030.5  1383.420136   -24.0900   -28.3690     2.8159
1380   8027.7  1383.432344   -23.3507   -28.3687     3.9366
1381   8025.0  1383.444551   -26.9371   -28.3685     2.1294
1382   8022.3  1383.456758   -27.7315   -28.3682     1.6404
1383   8019.6  1383.468965   -24.5112   -28.3679     2.4546
1384   8016.9  1383.481172   -26.8994   -28.3676     1.8762
1385   8014.2  1383.493379   -27.6558   -28.3673     0.4206
1386   8011.4  1383.505586   -29.5758   -28.3670    -0.6305
1387   8008.7  1383.517793   -29.1828   -28.3667    -0.5382
1388   8006.0  1383.530000   -27.6786   -28.3665     0.2425
1389   8003.3  1383.542207   -27.9557   -28.3662     0.2735
1390   8000.6  1383.554414   -28.7806   -28.3659    -0.7595
1391   7997.9  1383.566621   -30.9848   -28.3656    -1.0555
1392   7995.1  1383.578828   -26.9344   -28.3653     0.0045
1393   7992.4  1383.591035   -28.5898   -28.3651     0.1426
1394   7989.7  1383.603242   -28.7758   -28.3648    -0.1587
1395   7987.0  1383.615449   -27.9525   -28.3645    -0.2632
1396   7984.3  1383.627656   -29.8300   -28.3642    -0.2507
1397   7981.6  1383.639863   -26.8471   -28.3640     0.9426
1398   7978.9  1383.652070   -26.1614   -28.3637     1.0670
1399   7976.1  1383.664277   -30.0170   -28.3634     0.2215
1400   7973.4  1383.676484   -26.3723   -28.3632     0.1720
1401   7970.7  1383.688691   -30.0030   -28.3629    -0.9062
1402   7968.0  1383.700898   -30.6981   -28.3626    -1.5016
1403   7965.3  1383.713105   -28.0577   -28.3624    -0.7397
1404   7962.6  1383.725312   -29.5947   -28.3621    -0.4093
1405   7959.8  1383.737519   -27.8383   -28.3618    -0.2154
1406   7957.1  1383.749726   -29.0373   -28.3616    -0.4799
1407   7954.4  1383.761933   -29.4530   -28.3613     0.1540
1408   7951.7  1383.774140   -24.8857   -28.3610     1.6325
1409   7949.0  1383.786347   -27.6898   -28.3608     1.1528
1410   7946.3  1383.798554   -28.5669   -28.3605    -0.2768
1411   7943.6  1383.810761   -29.7257   -28.3603    -1.0930
1412   7940.8  1383.822969   -29.7946   -28.3600    -1.5141
1413   7938.1  1383.835176   -30.1816   -28.3597    -2.3323
1414   7935.4  1383.847383   -32.6104   -28.3595    -3.0524
1415   7932.7  1383.859590   -30.2453   -28.3592    -2.3819
1416   7930.0  1383.871797   -29.8635   -28.3590    -1.9667
1417   7927.3  1383.884004   -31.3304   -28.3587    -2.0964
1418   7924.6  1383.896211   -29.2961   -28.3585    -1.5164
1419   7921.8  1383.908418   -29.5767   -28.3582    -1.3235
1420   7919.1  1383.920625   -30.2775   -28.3580    -1.5845
1421   7916.4  1383.932832   -29.6382   -28.3577    -1.4793
1422   7913.7  1383.945039   -29.7942   -28.3575    -1.2754
1423   7911.0  1383.957246   -29.3049   -28.3572    -0.6761
1424   7908.3  1383.969453   -27.7294   -28.3570    -0.5279
1425   7905.6  1383.981660   -30.7759   -28.3567    -1.2859
1426   7902.8  1383.993867   -29.2893   -28.3565    -0.4644
1427   7900.1  1384.006074   -25.9292   -28.3562     1.3231
1428   7897.4  1384.018281   -26.9849   -28.3560     0.4733
1429   7894.7  1384.030488   -31.6318   -28.3558    -1.2111
1430   7892.0  1384.042695   -28.0188   -28.3555    -0.9321
1431   7889.3  1384.054902   -29.4810   -28.3553    -0.2280
1432   7886.6  1384.067109   -27.3523   -28.3550    -0.0533
1433   7883.8  1384.079316   -29.4478   -28.3548    -0.2451
1434   7881.1  1384.091523   -28.1517   -28.3546     0.5804
1435   7878.4  1384.103730   -25.3456   -28.3543     2.1409
1436   7875.7  1384.115937   -26.0107   -28.3541     1.7578
1437   7873.0  1384.128144   -29.0181   -28.3539     0.0294
1438   7870.3  1384.140351   -29.2510   -28.3536    -0.6907
1439   7867.6  1384.152558   -28.6573   -28.3534     1.0233
1440   7864.9  1384.164765   -22.7548   -28.3532     2.5524
1441   7862.1  1384.176972   -29.0361   -28.3530     0.8173
1442   7859.4  1384.189179   -29.3156   -28.3527    -0.0597
1443   7856.7  1384.201386   -25.9826   -28.3525     0.3921
1444   7854.0  1384.213594   -30.5610   -28.3523    -0.4760
1445   7851.3  1384.225801   -28.2086   -28.3521    -0.8661
1446   7848.6  1384.238008   -29.8943   -28.3518    -0.9547
1447   7845.9  1384.250215   -29.2290   -28.3516    -0.5481
1448   7843.1  1384.262422   -27.2467   -28.3514     0.7229
1449   7840.4  1384.274629   -26.7915   -28.3512     0.6051
1450   7837.7  1384.286836   -30.1544   -28.3509    -0.7338
1451   7835.0  1384.299043   -29.2386   -28.3507    -0.9069
1452   7832.3  1384.311250   -28.3991   -28.3505    -0.1623
1453   7829.6  1384.323457   -28.0146   -28.3503     0.1277
1454   7826.9  1384.335664   -28.4623   -28.3501    -0.0921
1455   7824.2  1384.347871   -28.8297   -28.3499     0.1756
1456   7821.4  1384.360078   -26.5755   -28.3496     1.2973
1457   7818.7  1384.372285   -26.2285   -28.3494     0.5318
1458   7816.0  1384.384492   -32.2381   -28.3492    -2.0566
1459   7813.3  1384.396699   -30.9185   -28.3490    -2.0479
1460   7810.6  1384.408906   -27.5128   -28.3488    -0.6067
1461   7807.9  1384.421113   -29.8782   -28.3486    -0.2832
1462   7805.2  1384.433320   -27.2581   -28.3484    -0.1083
1463   7802.5  1384.445527   -29.4323   -28.3482    -0.4111
1464   7799.7  1384.457734   -28.9145   -28.3480    -0.1985
1465   7797.0  1384.469941   -26.9248   -28.3478     0.4749
1466   7794.3  1384.482148   -28.7273   -28.3476     0.0376
1467   7791.6  1384.494355   -28.8606   -28.3474    -0.7680
1468   7788.9  1384.506562   -30.0130   -28.3472    -0.6810
1469   7786.2  1384.518769   -27.2262   -28.3470     0.9481
1470   7783.5  1384.530976   -25.1300   -28.3468     1.6418
1471   7780.8  1384.543183   -29.3337   -28.3466    -0.5520
1472   7778.1  1384.555390   -31.7968   -28.3464    -2.3349
1473   7775.3  1384.567597   -29.7978   -28.3462    -1.3960
1474   7772.6  1384.579804   -27.5765   -28.3460     0.1400
1475   7769.9  1384.592011   -27.8733   -28.3458     1.0371
1476   7767.2  1384.604219   -25.9116   -28.3456     0.9912
1477   7764.5  1384.616426   -29.7213   -28.3454     0.4640
1478   7761.8  1384.628633   -26.1715   -28.3452     0.5481
1479   7759.1  1384.640840   -29.1242   -28.3450     0.7157
1480   7756.4  1384.653047   -26.0974   -28.3448     1.2137
1481   7753.7  1384.665254   -27.2055   -28.3446     1.0184
1482   7750.9  1384.677461   -28.7967   -28.3445    -0.1593
1483   7748.2  1384.689668   -29.2162   -28.3443    -0.9627
1484   7745.5  1384.701875   -29.9990   -28.3441    -0.8526
1485   7742.8  1384.714082   -27.5728   -28.3439     0.1994
1486   7740.1  1384.726289   -27.4334   -28.3437     1.5816
1487   7737.4  1384.738496   -24.6091   -28.3435     1.7695
1488   7734.7  1384.750703   -29.6445   -28.3434     0.2628
1489   7732.0  1384.762910   -28.4243   -28.3432    -0.0930
1490   7729.3  1384.775117   -27.2517   -28.3430     0.6018
1491   7726.5  1384.787324   -28.0369   -28.3428     1.3037
1492   7723.8  1384.799531   -24.8309   -28.3426     1.9607
1493   7721.1  1384.811738   -27.8289   -28.3425     1.3117
1494   7718.4  1384.823945   -27.6345   -28.3423     1.4820
1495   7715.7  1384.836152   -24.3431   -28.3421     2.3273
1496   7713.0  1384.848359   -27.7387   -28.3419     0.8721
1497   7710.3  1384.860566   -30.0590   -28.3418     0.0929
1498   7707.6  1384.872773   -25.1386   -28.3416     1.6098
1499   7704.9  1384.884980   -26.5908   -28.3414     2.0598
1500   7702.1  1384.897187   -26.8064   -28.3413     1.5223
1501   7699.4  1384.909394   -27.0722   -28.3411     0.8686
1502   7696.7  1384.921601   -28.9391   -28.3409     0.5980
1503   7694.0  1384.933808   -26.0211   -28.3408     1.0622
1504   7691.3  1384.946015   -28.1327   -28.3406     0.3143
1505   7688.6  1384.958222   -29.8186   -28.3404    -0.8366
1506   7685.9  1384.970429   -28.9382   -28.3403    -0.1940
1507   7683.2  1384.982636   -26.4422   -28.3401     1.3971
1508   7680.5  1384.994844   -25.9493   -28.3399     0.9189
1509   7677.8  1385.007051   -31.3434   -28.3398    -1.2884
1510   7675.0  1385.019258   -29.8767   -28.3396    -1.7366
1511   7672.3  1385.031465   -29.2081   -28.3395    -0.3387
1512   7669.6  1385.043672   -26.4198   -28.3393     0.7095
1513   7666.9  1385.055879   -28.4716   -28.3392     1.2147
1514   7664.2  1385.068086   -25.1350   -28.3390     1.4765
1515   7661.5  1385.080293   -28.7082   -28.3388     0.1959
1516   7658.8  1385.092500   -30.0203   -28.3387    -0.8064
1517   7656.1  1385.104707   -27.8315   -28.3385    -0.0078
1518   7653.4  1385.116914   -27.7022   -28.3384     0.6329
1519   7650.7  1385.129121   -27.5860   -28.3382     1.1159
1520   7647.9  1385.141328   -26.0151   -28.3381     1.7248
1521   7645.2  1385.153535   -26.8370   -28.3379     1.5033
1522   7642.5  1385.165742   -27.6494   -28.3378     0.5891
1523   7639.8  1385.177949   -28.8589   -28.3376    -0.0609
1524   7637.1  1385.190156   -28.2269   -28.3375    -0.1955
1525   7634.4  1385.202363   -28.8193   -28.3374    -0.7322
1526   7631.7  1385.214570   -30.4129   -28.3372    -1.5466
1527   7629.0  1385.226777   -29.8903   -28.3371    -1.0217
1528   7626.3  1385.238984   -27.2416   -28.3369     0.4959
1529   7623.6  1385.251191   -26.9908   -28.3368     1.0216
1530   7620.9  1385.263398   -28.0374   -28.3367     0.1617
1531   7618.1  1385.275605   -29.6341   -28.3365    -0.3319
1532   7615.4  1385.287812   -27.3679   -28.3364    -0.2389
1533   7612.7  1385.300019   -29.9310   -28.3362    -1.9920
1534   7610.0  1385.312226   -34.0831   -28.3361    -3.9268
1535   7607.3  1385.324433   -30.9547   -28.3360    -3.8323
1536   7604.6  1385.336640   -32.6805   -28.3358    -3.4794
1537   7601.9  1385.348847   -30.9453   -28.3357    -1.8008
1538   7599.2  1385.361054   -25.9749   -28.3356    -0.0837
1539   7596.5  1385.373261   -30.7820   -28.3354    -0.8366
1540   7593.8  1385.385469   -29.1493   -28.3353    -0.6788
1541   7591.1  1385.397676   -26.9761   -28.3352     0.4707
1542   7588.4  1385.409883   -28.3564   -28.3351     0.2446
1543   7585.6  1385.422090   -28.6727   -28.3349    -0.1836
1544   7582.9  1385.434297   -28.3724   -28.3348     0.7673
1545   7580.2  1385.446504   -24.8524   -28.3347     1.7473
1546   7577.5  1385.458711   -28.2725   -28.3346     1.4994
1547   7574.8  1385.470918   -25.9434   -28.3344     0.6175
1548   7572.1  1385.483125   -30.7087   -28.3343    -0.6402
1549   7569.4  1385.495332   -28.5375   -28.3342    -0.6587
1550   7566.7  1385.507539   -28.1879   -28.3341    -0.1375
1551   7564.0  1385.519746   -28.9731   -28.3340    -0.3492
1552   7561.3  1385.531953   -28.5988   -28.3339    -1.1184
1553   7558.6  1385.544160   -31.6383   -28.3337    -1.8046
1554   7555.9  1385.556367   -28.6778   -28.3336    -1.0190
1555   7553.1  1385.568574   -28.4164   -28.3335    -0.1570
1556   7550.4  1385.580781   -28.4513   -28.3334     0.4183
1557   7547.7  1385.592988   -26.3411   -28.3333     1.1023
1558   7545.0  1385.605195   -27.7906   -28.3332     0.7520
1559   7542.3  1385.617402   -28.4025   -28.3331     0.9888
1560   7539.6  1385.629609   -24.7814   -28.3330     1.9226
1561   7536.9  1385.641816   -27.6760   -28.3328     1.3089
1562   7534.2  1385.654023   -27.9623   -28.3327    -0.1859
1563   7531.5  1385.666230   -30.4739   -28.3326    -1.7614
1564   7528.8  1385.678437   -31.4659   -28.3325    -2.2937
1565   7526.1  1385.690644   -29.0990   -28.3324    -0.8186
1566   7523.4  1385.702851   -26.9403   -28.3323    -0.0771
1567   7520.7  1385.715058   -30.6581   -28.3322    -1.0243
1568   7517.9  1385.727265   -29.1695   -28.3321    -0.8605
1569   7515.2  1385.739472   -27.7733   -28.3320     0.4457
1570   7512.5  1385.751679   -26.8293   -28.3319     0.8965
1571   7509.8  1385.763886   -28.3098   -28.3318     0.2248
1572   7507.1  1385.776094   -28.9794   -28.3317     0.3977
1573   7504.4  1385.788301   -25.4674   -28.3316     2.5479
1574   7501.7  1385.800508   -23.2205   -28.3315     2.6031
1575   7499.0  1385.812715   -31.0053   -28.3314     0.5596
1576   7496.3  1385.824922   -25.8560   -28.3313     0.7623
1577   7493.6  1385.837129   -27.5589   -28.3313     0.9738
1578   7490.9  1385.849336   -28.4559   -28.3312     0.1940
1579   7488.2  1385.861543   -28.0781   -28.3311     0.7340
1580   7485.5  1385.873750   -25.7764   -28.3310     1.3980
1581   7482.8  1385.885957   -28.1013   -28.3309     1.8066
1582   7480.1  1385.898164   -24.1184   -28.3308     2.4437
1583   7477.3  1385.910371   -27.2103   -28.3307     1.7192
1584   7474.6  1385.922578   -27.9072   -28.3306     0.1271
1585   7471.9  1385.934785   -29.7895   -28.3306    -0.9247
1586   7469.2  1385.946992   -29.5347   -28.3305    -0.7132
1587   7466.5  1385.959199   -27.3159   -28.3304     0.6937
1588   7463.8  1385.971406   -26.3802   -28.3303     0.8732
1589   7461.1  1385.983613   -29.7522   -28.3302    -0.0214
1590   7458.4  1385.995820   -27.5219   -28.3302    -0.2424
1591   7455.7  1386.008027   -29.4939   -28.3301    -0.5418
1592   7453.0  1386.020234   -28.9776   -28.3300    -0.8718
1593   7450.3  1386.032441   -29.3582   -28.3299    -1.2073
1594   7447.6  1386.044648   -30.4549   -28.3298    -1.4673
1595   7444.9  1386.056855   -28.9206   -28.3298    -1.1192
1596   7442.2  1386.069062   -29.4999   -28.3297    -0.8068
1597   7439.5  1386.081269   -28.6256   -28.3296    -0.3103
1598   7436.8  1386.093476   -27.8087   -28.3296     0.0066
1599   7434.1  1386.105683   -29.0486   -28.3295    -0.7667
1600   7431.3  1386.117890   -30.4787   -28.3294    -1.5704
1601   7428.6  1386.130097   -29.5935   -28.3294    -2.0862
1602   7425.9  1386.142304   -31.9964   -28.3293    -2.1944
1603   7423.2  1386.154511   -28.5085   -28.3292    -0.6123
1604   7420.5  1386.166719   -26.7529   -28.3292     1.6712
1605   7417.8  1386.178926   -24.6175   -28.3291     2.7583
1606   7415.1  1386.191133   -26.2953   -28.3290     2.4973
1607   7412.4  1386.203340   -26.1189   -28.3290     2.1595
1608   7409.7  1386.215547   -26.1449   -28.3289     1.5303
1609   7407.0  1386.227754   -28.7859   -28.3288     0.7917
1610   7404.3  1386.239961   -26.4318   -28.3288     1.7145
1611   7401.6  1386.252168   -24.8075   -28.3287     1.4706
1612   7398.9  1386.264375   -31.3858   -28.3287    -0.5897
1613   7396.2  1386.276582   -28.0942   -28.3286    -0.7284
1614   7393.5  1386.288789   -28.6539   -28.3286    -0.3230
1615   7390.8  1386.300996   -29.2042   -28.3285    -0.0948
1616   7388.1  1386.313203   -26.6309   -28.3285     0.1710
1617   7385.4  1386.325410   -30.1639   -28.3284    -0.7245
1618   7382.7  1386.337617   -29.2531   -28.3284    -1.0110
1619   7379.9  1386.349824   -28.6875   -28.3283    -0.6266
1620   7377.2  1386.362031   -29.1915   -28.3283    -1.0939
1621   7374.5  1386.374238   -30.6180   -28.3282    -0.9186
1622   7371.8  1386.386445   -26.5600   -28.3282     0.5790
1623   7369.1  1386.398652   -27.2588   -28.3281     1.2662
1624   7366.4  1386.410859   -27.1700   -28.3281     0.6771
1625   7363.7  1386.423066   -29.0050   -28.3280    -0.0156
1626   7361.0  1386.435273   -28.1944   -28.3280    -0.5052
1627   7358.3  1386.447480   -29.9389   -28.3279     0.1268
1628   7355.6  1386.459687   -24.7323   -28.3279     0.9085
1629   7352.9  1386.471894   -30.2740   -28.3279    -0.3532
1630   7350.2  1386.484101   -29.4440   -28.3278    -0.8632
1631   7347.5  1386.496308   -27.6021   -28.3278    -0.0729
1632   7344.8  1386.508515   -28.9544   -28.3278    -0.0576
1633   7342.1  1386.520722   -28.0304   -28.3277    -0.1788
1634   7339.4  1386.532929   -29.0110   -28.3277    -0.6549
1635   7336.7  1386.545136   -29.8778   -28.3276    -1.2656
1636   7334.0  1386.557344   -29.6065   -28.3276    -2.3086
1637   7331.3  1386.569551   -33.4540   -28.3276    -2.4624
1638   7328.6  1386.581758   -26.6454   -28.3276    -0.4560
1639   7325.9  1386.593965   -28.3895   -28.3275     1.2419
1640   7323.2  1386.606172   -24.9182   -28.3275     2.0098
1641   7320.5  1386.618379   -27.0449   -28.3275     1.2754
1642   7317.8  1386.630586   -29.2000   -28.3274     0.1590
1643   7315.0  1386.642793   -27.2288   -28.3274    -0.0685
1644   7312.3  1386.655000   -29.9261   -28.3274    -0.8609
1645   7309.6  1386.667207   -29.6720   -28.3274    -0.6552
1646   7306.9  1386.679414   -26.6602   -28.3273     0.7665
1647   7304.2  1386.691621   -27.2511   -28.3273     1.2137
1648   7301.5  1386.703828   -27.2922   -28.3273     1.4642
1649   7298.8  1386.716035   -25.6170   -28.3273     1.8742
1650   7296.1  1386.728242   -27.2860   -28.3273     1.6056
1651   7293.4  1386.740449   -26.6978   -28.3272     1.0462
1652   7290.7  1386.752656   -28.4425   -28.3272     0.8255
1653   7288.0  1386.764863   -26.4242   -28.3272     1.4664
1654   7285.3  1386.777070   -26.1524   -28.3272     1.7901
1655   7282.6  1386.789277   -27.4196   -28.3272     0.7851
1656   7279.9  1386.801484   -29.1766   -28.3272    -0.5066
1657   7277.2  1386.813691   -29.5624   -28.3272    -1.1133
1658   7274.5  1386.825898   -29.4605   -28.3271    -0.4076
1659   7271.8  1386.838105   -26.4558   -28.3271     0.6029
1660   7269.1  1386.850312   -28.5251   -28.3271    -0.2918
1661   7266.4  1386.862519   -30.9700   -28.3271    -1.5392
1662   7263.7  1386.874726   -29.0004   -28.3271    -1.2023
1663   7261.0  1386.886933   -29.1468   -28.3271     0.0804
1664   7258.3  1386.899140   -25.6931   -28.3271     0.3752
1665   7255.6  1386.911347   -31.2747   -28.3271    -1.4120
1666   7252.9  1386.923554   -30.7137   -28.3271    -2.2902
1667   7250.2  1386.935761   -29.7673   -28.3271    -1.3027
1668   7247.5  1386.947969   -28.2711   -28.3271    -0.2953
1669   7244.8  1386.960176   -28.1801   -28.3271    -0.4200
1670   7242.1  1386.972383   -30.3569   -28.3271    -1.6942
1671   7239.4  1386.984590   -31.1914   -28.3271    -2.3498
1672   7236.7  1386.996797   -29.9677   -28.3271    -1.7642
1673   7234.0  1387.009004   -29.2385   -28.3271    -0.8022
1674   7231.3  1387.021211   -28.0726   -28.3271    -0.2363
1675   7228.6  1387.033418   -28.8697   -28.3271     0.1048
1676   7225.9  1387.045625   -27.0773   -28.3271     0.6898
1677   7223.2  1387.057832   -27.5249   -28.3271     0.3382
1678   7220.5  1387.070039   -29.8285   -28.3271    -0.8378
1679   7217.8  1387.082246   -29.4776   -28.3272    -0.9453
1680   7215.0  1387.094453   -28.3061   -28.3272     0.4816
1681   7212.3  1387.106660   -25.2924   -28.3272     1.5166
1682   7209.6  1387.118867   -28.3514   -28.3272     1.2091
1683   7206.9  1387.131074   -26.4773   -28.3272     0.7047
1684   7204.2  1387.143281   -29.1842   -28.3272     0.6645
1685   7201.5  1387.155488   -25.8054   -28.3272     1.3675
1686   7198.8  1387.167695   -27.0439   -28.3273     1.6626
1687   7196.1  1387.179902   -26.7654   -28.3273     0.4406
1688   7193.4  1387.192109   -30.9720   -28.3273    -0.4784
1689   7190.7  1387.204316   -26.5136   -28.3273     0.2055
1690   7188.0  1387.216523   -28.4883   -28.3273     0.5961
1691   7185.3  1387.228730   -27.4345   -28.3274    -0.3456
1692   7182.6  1387.240937   -31.3345   -28.3274    -1.4244
1693   7179.9  1387.253144   -28.9037   -28.3274    -0.8804
1694   7177.2  1387.265351   -27.6895   -28.3274     0.8672
1695   7174.5  1387.277558   -25.5581   -28.3275     2.3352
1696   7171.8  1387.289765   -25.1633   -28.3275     2.3736
1697   7169.1  1387.301972   -27.9307   -28.3275     1.5172
1698   7166.4  1387.314179   -26.2165   -28.3275     1.3218
1699   7163.7  1387.326386   -27.6592   -28.3276     1.7150
1700   7161.0  1387.338594   -24.9154   -28.3276     2.5847
1701   7158.3  1387.350801   -25.4817   -28.3276     2.3075
1702   7155.6  1387.363008   -28.2017   -28.3277     1.0976
1703   7152.9  1387.375215   -27.0353   -28.3277     0.8475
1704   7150.2  1387.387422   -27.6485   -28.3277     1.3492
1705   7147.5  1387.399629   -25.5816   -28.3278     1.2479
1706   7144.8  1387.411836   -29.5075   -28.3278     0.6320
1707   7142.1  1387.424043   -26.1863   -28.3278     0.4903
1708   7139.4  1387.436250   -29.4698   -28.3279     0.5073
1709   7136.7  1387.448457   -26.1565   -28.3279     1.6821
1710   7134.0  1387.460664   -24.8004   -28.3280     2.4111
1711   7131.3  1387.472871   -27.9102   -28.3280     0.9128
1712   7128.6  1387.485078   -29.0401   -28.3280    -0.4424
1713   7125.9  1387.497285   -29.0917   -28.3281    -0.1334
1714   7123.2  1387.509492   -26.6225   -28.3281     0.9136
1715   7120.5  1387.521699   -27.3215   -28.3282     0.7510
1716   7117.8  1387.533906   -29.0432   -28.3282    -0.7783
1717   7115.1  1387.546113   -31.0182   -28.3283    -1.1187
1718   7112.4  1387.558320   -26.7086   -28.3283     0.1898
1719   7109.7  1387.570527   -28.1190   -28.3284     0.5015
1720   7107.0  1387.582734   -28.3609   -28.3284    -0.1986
1721   7104.3  1387.594941   -29.2673   -28.3285    -0.0105
1722   7101.6  1387.607148   -26.4602   -28.3285     0.0008
1723   7098.9  1387.619355   -31.1231   -28.3286    -1.0937
1724   7096.2  1387.631562   -28.9830   -28.3286    -1.2118
1725   7093.5  1387.643769   -29.0726   -28.3287    -0.2868
1726   7090.8  1387.655976   -27.3339   -28.3288     0.3776
1727   7088.1  1387.668183   -28.0640   -28.3288     0.4146
1728   7085.4  1387.680390   -28.1948   -28.3289    -0.0706
1729   7082.7  1387.692597   -29.1443   -28.3289     0.2909
1730   7080.0  1387.704804   -25.6688   -28.3290     2.2458
1731   7077.3  1387.717011   -23.8511   -28.3291     3.1454
1732   7074.6  1387.729219   -27.3636   -28.3291     1.9109
1733   7071.9  1387.741426   -27.0947   -28.3292     0.8860
1734   7069.2  1387.753633   -28.2196   -28.3292     0.8096
1735   7066.5  1387.765840   -26.5448   -28.3293     1.1181
1736   7063.8  1387.778047   -27.5359   -28.3294     0.7670
1737   7061.1  1387.790254   -28.6327   -28.3294     0.2196
1738   7058.4  1387.802461   -27.6380   -28.3295     0.2790
1739   7055.7  1387.814668   -28.2934   -28.3296     0.0521
1740   7053.0  1387.826875   -28.8852   -28.3297     0.2893
1741   7050.3  1387.839082   -26.0978   -28.3297     0.8920
1742   7047.6  1387.851289   -28.6703   -28.3298     0.4688
1743   7044.9  1387.863496   -28.0056   -28.3299     0.5024
1744   7042.2  1387.875703   -26.6284   -28.3299     0.7261
1745   7039.5  1387.887910   -29.1529   -28.3300     0.8501
1746   7036.8  1387.900117   -24.9854   -28.3301     1.8339
1747   7034.1  1387.912324   -26.8609   -28.3302     1.8787
1748   7031.4  1387.924531   -27.0985   -28.3303     0.4875
1749   7028.7  1387.936738   -30.3132   -28.3303    -1.4003
1750   7026.0  1387.948945   -31.1978   -28.3304    -1.5929
1751   7023.3  1387.961152   -26.9845   -28.3305    -0.0578
1752   7020.6  1387.973359   -28.3864   -28.3306     0.5570
1753   7017.9  1387.985566   -27.3370   -28.3307     0.4020
1754   7015.2  1387.997773   -28.6544   -28.3308    -0.1945
1755   7012.5  1388.009980   -29.4550   -28.3308    -1.2120
1756   7009.8  1388.022187   -30.6069   -28.3309    -1.4467
1757   7007.2  1388.034394   -28.4416   -28.3310    -1.5056
1758   7004.5  1388.046601   -31.8564   -28.3311    -2.5418
1759   7001.8  1388.058808   -31.3371   -28.3312    -1.8723
1760   6999.1  1388.071015   -26.2834   -28.3313     0.2683
1761   6996.4  1388.083222   -28.3481   -28.3314     0.4698
1762   6993.7  1388.095429   -28.4668   -28.3315    -0.1740
1763   6991.0  1388.107636   -28.7402   -28.3316    -0.9992
1764   6988.3  1388.119844   -31.3759   -28.3317    -1.8861
1765   6985.6  1388.132051   -29.3790   -28.3318    -0.8133
1766   6982.9  1388.144258   -26.4461   -28.3318     0.7677
1767   6980.2  1388.156465   -27.9855   -28.3319     0.6470
1768   6977.5  1388.168672   -28.3229   -28.3320     0.0074
1769   6974.8  1388.180879   -28.6673   -28.3321    -0.5978
1770   6972.1  1388.193086   -30.0622   -28.3322    -1.4246
1771   6969.4  1388.205293   -30.2356   -28.3323    -0.4598
1772   6966.7  1388.217500   -24.6350   -28.3324     1.5540
1773   6964.0  1388.229707   -27.6082   -28.3326     1.1651
1774   6961.3  1388.241914   -28.8186   -28.3327    -0.4064
1775   6958.6  1388.254121   -29.7108   -28.3328    -1.5849
1776   6955.9  1388.266328   -31.4304   -28.3329    -1.8266
1777   6953.2  1388.278535   -28.0662   -28.3330     0.3913
1778   6950.5  1388.290742   -24.2037   -28.3331     1.8220
1779   6947.8  1388.302949   -29.5709   -28.3332     0.2103
1780   6945.1  1388.315156   -29.1462   -28.3333    -1.6324
1781   6942.4  1388.327363   -31.9997   -28.3334    -2.1914
1782   6939.7  1388.339570   -28.9535   -28.3335    -0.4969
1783   6937.0  1388.351777   -25.4148   -28.3336     0.7307
1784   6934.3  1388.363984   -30.6284   -28.3338    -0.8165
1785   6931.6  1388.376191   -29.9292   -28.3339    -1.4189
1786   6928.9  1388.388398   -28.5242   -28.3340    -0.0452
1787   6926.2  1388.400605   -26.5389   -28.3341     1.4036
1788   6923.5  1388.412812   -26.1198   -28.3342     1.3976
1789   6920.8  1388.425019   -28.9680   -28.3343     0.2534
1790   6918.1  1388.437226   -28.2680   -28.3345    -0.4555
1791   6915.4  1388.449433   -29.6561   -28.3346    -0.1685
1792   6912.7  1388.461640   -26.4322   -28.3347     0.8942
1793   6910.0  1388.473847   -27.2417   -28.3348     1.8454
1794   6907.4  1388.486054   -25.0422   -28.3350     1.6231
1795   6904.7  1388.498261   -29.5212   -28.3351    -0.0100
1796   6902.0  1388.510469   -29.2959   -28.3352    -0.7681
1797   6899.3  1388.522676   -28.3000   -28.3353    -0.6418
1798   6896.6  1388.534883   -30.0128   -28.3355    -0.6754
1799   6893.9  1388.547090   -27.7178   -28.3356     0.3359
1800   6891.2  1388.559297   -26.5504   -28.3357     0.9564
1801   6888.5  1388.571504   -28.6987   -28.3359    -0.0843
1802   6885.8  1388.583711   -29.7326   -28.3360    -0.7324
1803   6883.1  1388.595918   -28.1097   -28.3361    -0.9676
1804   6880.4  1388.608125   -31.2627   -28.3363    -1.5218
1805   6877.7  1388.620332   -28.7973   -28.3364    -1.3208
1806   6875.0  1388.632539   -29.7715   -28.3365    -0.4327
1807   6872.3  1388.644746   -26.7368   -28.3367     0.3741
1808   6869.6  1388.656953   -28.6053   -28.3368     0.4852
1809   6866.9  1388.669160   -27.4592   -28.3369     0.8949
1810   6864.2  1388.681367   -26.2445   -28.3371     0.9662
1811   6861.5  1388.693574   -29.5356   -28.3372     0.1569
1812   6858.8  1388.705781   -27.4059   -28.3374    -0.6986
1813   6856.1  1388.717988   -31.7968   -28.3375    -1.9397
1814   6853.4  1388.730195   -30.1095   -28.3377    -2.1072
1815   6850.7  1388.742402   -29.7638   -28.3378    -1.6691
1816   6848.0  1388.754609   -30.3905   -28.3379    -1.2514
1817   6845.3  1388.766816   -27.8126   -28.3381    -0.5150
1818   6842.7  1388.779023   -29.3966   -28.3382    -1.0297
1819   6840.0  1388.791230   -30.8662   -28.3384    -1.5740
1820   6837.3  1388.803437   -28.5205   -28.3385    -0.1587
1821   6834.6  1388.815644   -26.0815   -28.3387     1.2752
1822   6831.9  1388.827851   -27.5702   -28.3388     0.3623
1823   6829.2  1388.840058   -30.6843   -28.3390    -0.4531
1824   6826.5  1388.852265   -26.2295   -28.3392    -0.2248
1825   6823.8  1388.864472   -31.1125   -28.3393    -0.0977
1826   6821.1  1388.876679   -25.2935   -28.3395     0.8350
1827   6818.4  1388.888886   -28.3184   -28.3396     0.0866
1828   6815.7  1388.901094   -31.0818   -28.3398    -0.2892
1829   6813.0  1388.913301   -24.0341   -28.3399     2.3034
1830   6810.3  1388.925508   -24.9962   -28.3401     2.3995
1831   6807.6  1388.937715   -29.7360   -28.3403    -0.3315
1832   6804.9  1388.949922   -30.2188   -28.3404    -1.4549
1833   6802.2  1388.962129   -29.0076   -28.3406    -1.4896
1834   6799.5  1388.974336   -31.0868   -28.3408    -1.6098
1835   6796.8  1388.986543   -28.6210   -28.3409    -0.8107
1836   6794.1  1388.998750   -28.2777   -28.3411    -1.0768
1837   6791.5  1389.010957   -32.4949   -28.3412    -1.3460
1838   6788.8  1389.023164   -25.4813   -28.3414     0.2918
1839   6786.1  1389.035371   -28.7410   -28.3416     1.2494
1840   6783.4  1389.047578   -25.4054   -28.3418     2.2116
1841   6780.7  1389.059785   -24.9690   -28.3419     2.2581
1842   6778.0  1389.071992   -28.9918   -28.3421     0.7808
1843   6775.3  1389.084199   -27.2927   -28.3423    -0.1255
1844   6772.6  1389.096406   -30.2939   -28.3424    -1.3724
1845   6769.9  1389.108613   -30.9789   -28.3426    -1.6330
1846   6767.2  1389.120820   -27.6506   -28.3428    -0.1538
1847   6764.5  1389.133027   -27.7063   -28.3430     0.2775
1848   6761.8  1389.145234   -29.1988   -28.3432     0.6464
1849   6759.1  1389.157441   -24.6833   -28.3433     1.7067
1850   6756.4  1389.169648   -27.9810   -28.3435     1.6546
1851   6753.7  1389.181855   -26.1103   -28.3437     0.8033
1852   6751.0  1389.194062   -29.9599   -28.3439    -0.5181
1853   6748.3  1389.206269   -29.4177   -28.3441    -1.7750
1854   6745.7  1389.218476   -31.6809   -28.3442    -1.3484
1855   6743.0  1389.230683   -25.9911   -28.3444     0.6650
1856   6740.3  1389.242890   -27.0548   -28.3446     0.5994
1857   6737.6  1389.255097   -30.8801   -28.3448    -0.2638
1858   6734.9  1389.267304   -25.6193   -28.3450     0.6842
1859   6732.2  1389.279511   -28.5242   -28.3452     0.2177
1860   6729.5  1389.291719   -29.8423   -28.3454    -0.8802
1861   6726.8  1389.303926   -28.6932   -28.3456     0.2347
1862   6724.1  1389.316133   -25.2145   -28.3457     1.8054
1863   6721.4  1389.328340   -27.0391   -28.3459     1.5757
1864   6718.7  1389.340547   -27.7884   -28.3461    -0.1384
1865   6716.0  1389.352754   -31.3222   -28.3463    -1.2559
1866   6713.3  1389.364961   -27.9763   -28.3465    -0.3887
1867   6710.6  1389.377168   -27.6663   -28.3467     0.4182
1868   6707.9  1389.389375   -28.4052   -28.3469    -0.0529
1869   6705.3  1389.401582   -29.1227   -28.3471    -0.4913
1870   6702.6  1389.413789   -28.7033   -28.3473    -0.1209
1871   6699.9  1389.425996   -27.3436   -28.3475     1.3890
1872   6697.2  1389.438203   -24.4435   -28.3477     1.9907
1873   6694.5  1389.450410   -29.1974   -28.3479    -0.3158
1874   6691.8  1389.462617   -31.8165   -28.3481    -2.2190
1875   6689.1  1389.474824   -29.4379   -28.3483    -1.1349
1876   6686.4  1389.487031   -27.2407   -28.3485     0.3207
1877   6683.7  1389.499238   -28.1921   -28.3487     0.7389
1878   6681.0  1389.511445   -26.8145   -28.3489     0.9160
1879   6678.3  1389.523652   -27.9109   -28.3492     0.9627
1880   6675.6  1389.535859   -26.9097   -28.3494     1.2264
1881   6672.9  1389.548066   -26.7616   -28.3496     1.3100
1882   6670.3  1389.560273   -27.7252   -28.3498     0.7535
1883   6667.6  1389.572480   -28.1730   -28.3500     1.0974
1884   6664.9  1389.584687   -24.9394   -28.3502     2.2496
1885   6662.2  1389.596894   -26.3506   -28.3504     1.0524
1886   6659.5  1389.609101   -31.5514   -28.3506    -0.7159
1887   6656.8  1389.621308   -26.8129   -28.3509    -0.1724
1888   6654.1  1389.633515   -28.9158   -28.3511    -0.3709
1889   6651.4  1389.645722   -30.2434   -28.3513    -1.1319
1890   6648.7  1389.657929   -28.5302   -28.3515    -0.6859
1891   6646.0  1389.670136   -28.8459   -28.3517    -0.2136
1892   6643.3  1389.682344   -28.0391   -28.3520    -0.1948
1893   6640.6  1389.694551   -29.2630   -28.3522     0.1562
1894   6638.0  1389.706758   -26.2187   -28.3524     0.5662
1895   6635.3  1389.718965   -29.4444   -28.3526    -0.0336
1896   6632.6  1389.731172   -28.4375   -28.3529     0.1818
1897   6629.9  1389.743379   -26.3649   -28.3531     1.2325
1898   6627.2  1389.755586   -27.3150   -28.3533     1.1862
1899   6624.5  1389.767793   -27.6734   -28.3535     0.4052
1900   6621.8  1389.780000   -29.1314   -28.3538    -0.5449
1901   6619.1  1389.792207   -29.6583   -28.3540    -1.3685
1902   6616.4  1389.804414   -30.4418   -28.3542    -1.7297
1903   6613.7  1389.816621   -29.7938   -28.3545    -1.1831
1904   6611.0  1389.828828   -28.1207   -28.3547     0.5147
1905   6608.3  1389.841035   -25.3247   -28.3549     1.2661
1906   6605.7  1389.853242   -29.5851   -28.3552    -0.0762
1907   6603.0  1389.865449   -29.2308   -28.3554    -0.8701
1908   6600.3  1389.877656   -28.8554   -28.3556    -0.5064
1909   6597.6  1389.889863   -28.5065   -28.3559     0.2377
1910   6594.9  1389.902070   -26.6044   -28.3561     0.7913
1911   6592.2  1389.914277   -28.5439   -28.3563     0.3621
1912   6589.5  1389.926484   -28.2848   -28.3566    -0.1895
1913   6586.8  1389.938691   -29.0707   -28.3568    -0.0441
1914   6584.1  1389.950898   -27.1776   -28.3571     0.5784
1915   6581.4  1389.963105   -27.6887   -28.3573     0.3395
1916   6578.7  1389.975312   -29.5164   -28.3576    -0.3548
1917   6576.1  1389.987519   -28.1282   -28.3578    -0.5971
1918   6573.4  1389.999726   -30.0470   -28.3581     0.2178
1919   6570.7  1390.011933   -24.3387   -28.3583     1.6942
1920   6568.0  1390.024140   -27.9319   -28.3586     1.5632
1921   6565.3  1390.036347   -26.9790   -28.3588     1.5939
1922   6562.6  1390.048554   -25.1696   -28.3591     1.4302
1923   6559.9  1390.060761   -30.3973   -28.3593    -0.1199
1924   6557.2  1390.072969   -27.9529   -28.3596    -0.5797
1925   6554.5  1390.085176   -29.4538   -28.3598     0.0960
1926   6551.8  1390.097383   -26.1946   -28.3601     0.8031
1927   6549.2  1390.109590   -28.3847   -28.3603     0.4858
1928   6546.5  1390.121797   -28.5341   -28.3606    -0.2305
1929   6543.8  1390.134004   -28.9115   -28.3608     0.4228
1930   6541.1  1390.146211   -25.3950   -28.3611     1.3609
1931   6538.4  1390.158418   -28.2992   -28.3614     1.2036
1932   6535.7  1390.170625   -26.6377   -28.3616     1.2803
1933   6533.0  1390.182832   -26.7507   -28.3619     0.7814
1934   6530.3  1390.195039   -30.1828   -28.3621     0.1331
1935   6527.6  1390.207246   -25.7999   -28.3624     1.2156
1936   6524.9  1390.219453   -26.8047   -28.3627     1.2244
1937   6522.3  1390.231660   -29.1435   -28.3629    -0.0779
1938   6519.6  1390.243867   -28.6717   -28.3632    -0.2950
1939   6516.9  1390.256074   -28.1457   -28.3635    -0.4260
1940   6514.2  1390.268281   -30.1949   -28.3637    -0.7348
1941   6511.5  1390.280488   -27.8589   -28.3640    -1.2608
1942   6508.8  1390.292695   -32.5868   -28.3643    -1.3725
1943   6506.1  1390.304902   -25.9149   -28.3645     0.8735
1944   6503.4  1390.317109   -25.5477   -28.3648     1.9552
1945   6500.7  1390.329316   -28.6283   -28.3651     0.7071
1946   6498.0  1390.341523   -27.8277   -28.3654     0.5351
1947   6495.4  1390.353730   -27.0377   -28.3656     1.0934
1948   6492.7  1390.365937   -27.1858   -28.3659     1.5250
1949   6490.0  1390.378144   -25.9545   -28.3662     1.4565
1950   6487.3  1390.390351   -28.5439   -28.3665     0.4013
1951   6484.6  1390.402558   -28.8183   -28.3668    -0.4316
1952   6481.9  1390.414765   -29.0128   -28.3670    -0.8267
1953   6479.2  1390.426972   -29.9309   -28.3673    -0.9033
1954   6476.5  1390.439179   -28.2078   -28.3676    -0.5550
1955   6473.8  1390.451386   -29.3439   -28.3679    -1.7537
1956   6471.2  1390.463594   -33.5908   -28.3682    -1.9311
1957   6468.5  1390.475801   -24.6716   -28.3685     1.0879
1958   6465.8  1390.488008   -26.1883   -28.3687     2.2172
1959   6463.1  1390.500215   -27.5579   -28.3690     0.3800
1960   6460.4  1390.512422   -30.6522   -28.3693    -0.6980
1961   6457.7  1390.524629   -27.4070   -28.3696    -0.3786
1962   6455.0  1390.536836   -29.5268   -28.3699    -0.7055
1963   6452.3  1390.549043   -29.8411   -28.3702    -1.2046
1964   6449.7  1390.561250   -29.0900   -28.3705    -0.4035
1965   6447.0  1390.573457   -27.0747   -28.3708     0.1143
1966   6444.3  1390.585664   -29.7864   -28.3711    -1.3856
1967   6441.6  1390.597871   -32.3792   -28.3714    -1.3927
1968   6438.9  1390.610078   -24.5113   -28.3717     0.8050
1969   6436.2  1390.622285   -28.8645   -28.3720     1.0892
1970   6433.5  1390.634492   -26.8905   -28.3723     0.4366
1971   6430.8  1390.646699   -29.0971   -28.3726    -0.1186
1972   6428.1  1390.658906   -28.8800   -28.3729    -0.0327
1973   6425.5  1390.671113   -26.7649   -28.3732    -0.5461
1974   6422.8  1390.683320   -33.2670   -28.3735    -1.1597
1975   6420.1  1390.695527   -24.8338   -28.3738    -0.2541
1976   6417.4  1390.707734   -31.5767   -28.3741    -0.6354
1977   6414.7  1390.719941   -28.0504   -28.3744    -1.1555
1978   6412.0  1390.732148   -30.4419   -28.3747    -0.6709
1979   6409.3  1390.744355   -27.2479   -28.3750     0.1487
1980   6406.6  1390.756562   -27.9672   -28.3753     0.9217
1981   6404.0  1390.768769   -26.6318   -28.3756     1.2333
1982   6401.3  1390.780976   -27.3384   -28.3759     0.8559
1983   6398.6  1390.793183   -28.7715   -28.3762    -0.3001
1984   6395.9  1390.805390   -29.8239   -28.3765    -1.4869
1985   6393.2  1390.817597   -31.0343   -28.3768    -1.0840
1986   6390.5  1390.829804   -25.9506   -28.3772     0.5569
1987   6387.8  1390.842011   -28.3454   -28.3775     0.7408
1988   6385.1  1390.854219   -27.9051   -28.3778    -0.5123
1989   6382.5  1390.866426   -31.4048   -28.3781    -1.0701
1990   6379.8  1390.878633   -27.0781   -28.3784    -0.0854
1991   6377.1  1390.890840   -28.2943   -28.3787     0.8067
1992   6374.4  1390.903047   -26.6215   -28.3791     0.3247
1993   6371.7  1390.915254   -30.6799   -28.3794    -1.0100
1994   6369.0  1390.927461   -29.5762   -28.3797    -1.4578
1995   6366.3  1390.939668   -29.5180   -28.3800    -0.7781
1996   6363.6  1390.951875   -28.0204   -28.3803    -0.2153
1997   6361.0  1390.964082   -28.8236   -28.3807    -0.2070
1998   6358.3  1390.976289   -28.6829   -28.3810    -0.6959
1999   6355.6  1390.988496   -30.1184   -28.3813    -0.4367
2000   6352.9  1391.000703   -26.3526   -28.3816     0.9356
2001   6350.2  1391.012910   -26.9608   -28.3820     1.1164
2002   6347.5  1391.025117   -28.7882   -28.3823    -0.0486
2003   6344.8  1391.037324   -29.1866   -28.3826    -0.4879
2004   6342.2  1391.049531   -28.3210   -28.3830    -0.7232
2005   6339.5  1391.061738   -30.5961   -28.3833    -0.9195
2006   6336.8  1391.073945   -27.6980   -28.3836    -0.8851
2007   6334.1  1391.086152   -31.0831   -28.3840    -1.7106
2008   6331.4  1391.098359   -30.5141   -28.3843    -2.2022
2009   6328.7  1391.110566   -30.2348   -28.3846    -2.0133
2010   6326.0  1391.122773   -30.6082   -28.3850    -2.5515
2011   6323.4  1391.134980   -32.2946   -28.3853    -2.2300
2012   6320.7  1391.147187   -27.2638   -28.3857    -0.1017
2013   6318.0  1391.159394   -27.1271   -28.3860    -0.2597
2014   6315.3  1391.171601   -33.0647   -28.3863    -1.9208
2015   6312.6  1391.183808   -27.9723   -28.3867    -0.8582
2016   6309.9  1391.196015   -27.9702   -28.3870    -0.3546
2017   6307.2  1391.208222   -31.0540   -28.3874    -1.9731
2018   6304.5  1391.220429   -31.3638   -28.3877    -1.2743
2019   6301.9  1391.232636   -24.8663   -28.3881     0.9958
2020   6299.2  1391.244844   -28.4726   -28.3884     0.5964
2021   6296.5  1391.257051   -29.3563   -28.3888    -0.4189
2022   6293.8  1391.269258   -28.0454   -28.3891    -0.2115
2023   6291.1  1391.281465   -28.9555   -28.3895    -0.6296
2024   6288.4  1391.293672   -30.1197   -28.3898    -0.8842
2025   6285.7  1391.305879   -27.9012   -28.3902    -0.0554
2026   6283.1  1391.318086   -27.8600   -28.3905     0.3090
2027   6280.4  1391.330293   -28.7048   -28.3909    -0.3346
2028   6277.7  1391.342500   -29.6320   -28.3912    -1.6447
2029   6275.0  1391.354707   -32.1751   -28.3916    -2.8108
2030   6272.3  1391.366914   -30.8272   -28.3919    -2.9905
2031   6269.6  1391.379121   -31.7001   -28.3923    -2.9290
2032   6267.0  1391.391328   -31.0578   -28.3926    -1.8789
2033   6264.3  1391.403535   -27.2703   -28.3930    -0.5660
2034   6261.6  1391.415742   -30.2376   -28.3934    -0.7845
2035   6258.9  1391.427949   -28.9660   -28.3937    -0.9831
2036   6256.2  1391.440156   -29.3375   -28.3941    -0.4684
2037   6253.5  1391.452363   -27.8090   -28.3945     0.0638
2038   6250.8  1391.464570   -28.3670   -28.3948    -0.9670
2039   6248.2  1391.476777   -32.9045   -28.3952    -1.9953
2040   6245.5  1391.488984   -27.3858   -28.3956    -1.0251
2041   6242.8  1391.501191   -30.0066   -28.3959    -0.0139
2042   6240.1  1391.513398   -26.2401   -28.3963     0.3410
2043   6237.4  1391.525605   -29.7343   -28.3967    -0.8100
2044   6234.7  1391.537812   -31.1181   -28.3970    -2.5548
2045   6232.1  1391.550019   -31.8368   -28.3974    -2.1207
2046   6229.4  1391.562226   -27.2807   -28.3978    -1.2847
2047   6226.7  1391.574433   -32.3318   -28.3981    -2.6710
